<?xml version="1.0" encoding="UTF-8"?>
<?xml-stylesheet type="text/xsl" href="define2-0-0.xsl"?>
<ODM
     xmlns:xlink="http://www.w3.org/1999/xlink"
     xmlns="http://www.cdisc.org/ns/odm/v1.3"
     xmlns:def="http://www.cdisc.org/ns/def/v2.0"
     ODMVersion="1.3.2"
     FileType="Snapshot"
     FileOID="123456.SDTM-IG.3.2"
     CreationDateTime="2021-03-29T14:40:20+08:00"
     SourceSystem="Pinnacle 21 Community"
     SourceSystemVersion="3.1.0">
   <Study OID="123456.SDTM-IG.3.2">
      <GlobalVariables>
         <StudyName>123456</StudyName>
         <StudyDescription>Test Study</StudyDescription>
         <ProtocolName>123456</ProtocolName>
      </GlobalVariables>
      <MetaDataVersion OID="MDV.123456.SDTM-IG.3.2"
                       Name="Study 123456 Data Definitions"
                       def:DefineVersion="2.0.0"
                       def:StandardName="SDTM-IG"
                       def:StandardVersion="3.2">
         <def:AnnotatedCRF>
            <def:DocumentRef leafID="LF.acrf"/>
         </def:AnnotatedCRF>
         <def:SupplementalDoc>
            <def:DocumentRef leafID="LF.ReviewersGuide"/>
         </def:SupplementalDoc>
         <def:ValueListDef OID="VL.DS.DSDECOD">
            <ItemRef ItemOID="IT.DS.DSDECOD.DS.DSCAT.EQ.a7b344a9c2b3a5cec4b00776ee448865b548c9cb"
                     OrderNumber="1"
                     Mandatory="Yes">
               <def:WhereClauseRef WhereClauseOID="WC.DS.DSCAT.DISPOSITION EVENT"/>
            </ItemRef>
            <ItemRef ItemOID="IT.DS.DSDECOD.DS.DSCAT.EQ.c684d06e63dfccdd5185c236ef27129d07c28277"
                     OrderNumber="2"
                     Mandatory="Yes">
               <def:WhereClauseRef WhereClauseOID="WC.DS.DSCAT.PROTOCOL MILESTONE"/>
            </ItemRef>
         </def:ValueListDef>
         <def:ValueListDef OID="VL.EG.EGORRES">
            <ItemRef ItemOID="IT.EG.EGORRES.EG.EGTESTCD.EQ.EG.EGMETHOD.EQ.dd407e4a2fcc0ab2d849e8e136db802831e3ef35"
                     OrderNumber="1"
                     Mandatory="No">
               <def:WhereClauseRef WhereClauseOID="WC.EG.EGTESTCD.INTP.EGMETHOD.12 LEAD UNSPECIFIED"/>
            </ItemRef>
            <ItemRef ItemOID="IT.EG.EGORRES.EG.EGTESTCD.EQ.EG.EGMETHOD.EQ.c100caf5ddf3bc1b2b7251ce9b139a56b81f6c57"
                     OrderNumber="2"
                     Mandatory="No">
               <def:WhereClauseRef WhereClauseOID="WC.EG.EGTESTCD.INTP.EGMETHOD.HOLTER CONTINUOUS ECG RECORDING"/>
            </ItemRef>
         </def:ValueListDef>
         <def:ValueListDef OID="VL.FA.FAORRES">
            <ItemRef ItemOID="IT.FA.FAORRES.FA.FATESTCD.EQ.FA.FACAT.EQ.e2d8350cd5ad3c84fb3a842381911aef9f9119a1"
                     OrderNumber="1"
                     Mandatory="No">
               <def:WhereClauseRef WhereClauseOID="WC.FA.FATESTCD.ASSRES.FACAT.Administration site assessment"/>
            </ItemRef>
            <ItemRef ItemOID="IT.FA.FAORRES.FA.FATESTCD.EQ.FA.FACAT.EQ.54933b43fec0a6c1c8028a4ba5b3750b92191564"
                     OrderNumber="2"
                     Mandatory="No">
               <def:WhereClauseRef WhereClauseOID="WC.FA.FATESTCD.OCCUR.FACAT.Blood Related History"/>
            </ItemRef>
            <ItemRef ItemOID="IT.FA.FAORRES.FA.FATESTCD.EQ.FA.FACAT.EQ.d3abaaf395adbc45c0f08b93697e71087ecbb342"
                     OrderNumber="3"
                     Mandatory="No">
               <def:WhereClauseRef WhereClauseOID="WC.FA.FATESTCD.OCCUR.FACAT.Nasopharynx and Ocular Assessments"/>
            </ItemRef>
            <ItemRef ItemOID="IT.FA.FAORRES.FA.FATESTCD.EQ.FA.FACAT.EQ.1cc8e22d11e59b13f0f2fb4599f3c42c6a78be48"
                     OrderNumber="4"
                     Mandatory="No">
               <def:WhereClauseRef WhereClauseOID="WC.FA.FATESTCD.OCCUR.FACAT.Vaccine Inoculation History"/>
            </ItemRef>
         </def:ValueListDef>
         <def:ValueListDef OID="VL.IE.IEORRES">
            <ItemRef ItemOID="IT.IE.IEORRES.IE.IETESTCD.EQ.IE.IECAT.EQ.83d3fc7d05049cbe8105f2ac547b1ec9b4d35df2"
                     OrderNumber="1"
                     Mandatory="Yes">
               <def:WhereClauseRef WhereClauseOID="WC.IE.IETESTCD.EXCL04.IECAT.EXCLUSION"/>
            </ItemRef>
            <ItemRef ItemOID="IT.IE.IEORRES.IE.IETESTCD.EQ.IE.IECAT.EQ.9e2dcdc3cc7bfacce731d78607bd6841a2c91936"
                     OrderNumber="2"
                     Mandatory="Yes">
               <def:WhereClauseRef WhereClauseOID="WC.IE.IETESTCD.EXCL06.IECAT.EXCLUSION"/>
            </ItemRef>
            <ItemRef ItemOID="IT.IE.IEORRES.IE.IETESTCD.EQ.IE.IECAT.EQ.37c2165c0556ea2cb4f2f9f23bc4854f171f09d5"
                     OrderNumber="3"
                     Mandatory="Yes">
               <def:WhereClauseRef WhereClauseOID="WC.IE.IETESTCD.EXCL07.IECAT.EXCLUSION"/>
            </ItemRef>
            <ItemRef ItemOID="IT.IE.IEORRES.IE.IETESTCD.EQ.IE.IECAT.EQ.b119504873f1621969c1932b20ea9270e03a48a7"
                     OrderNumber="4"
                     Mandatory="Yes">
               <def:WhereClauseRef WhereClauseOID="WC.IE.IETESTCD.EXCL08.IECAT.EXCLUSION"/>
            </ItemRef>
            <ItemRef ItemOID="IT.IE.IEORRES.IE.IETESTCD.EQ.IE.IECAT.EQ.8e44a7720ecd4bdd344b26ea77f3137385815020"
                     OrderNumber="5"
                     Mandatory="Yes">
               <def:WhereClauseRef WhereClauseOID="WC.IE.IETESTCD.EXCL09.IECAT.EXCLUSION"/>
            </ItemRef>
            <ItemRef ItemOID="IT.IE.IEORRES.IE.IETESTCD.EQ.IE.IECAT.EQ.f4b9feceb960d1123733a56fbbca68dece2b5d43"
                     OrderNumber="6"
                     Mandatory="Yes">
               <def:WhereClauseRef WhereClauseOID="WC.IE.IETESTCD.EXCL12.IECAT.EXCLUSION"/>
            </ItemRef>
            <ItemRef ItemOID="IT.IE.IEORRES.IE.IETESTCD.EQ.IE.IECAT.EQ.a5a9d15782bdd716ffb125085b601a24077e870e"
                     OrderNumber="7"
                     Mandatory="Yes">
               <def:WhereClauseRef WhereClauseOID="WC.IE.IETESTCD.EXCL14.IECAT.EXCLUSION"/>
            </ItemRef>
            <ItemRef ItemOID="IT.IE.IEORRES.IE.IETESTCD.EQ.IE.IECAT.EQ.4dabbf767a8d024899a2a7b7974993aa34e85c46"
                     OrderNumber="8"
                     Mandatory="Yes">
               <def:WhereClauseRef WhereClauseOID="WC.IE.IETESTCD.EXCL15.IECAT.EXCLUSION"/>
            </ItemRef>
            <ItemRef ItemOID="IT.IE.IEORRES.IE.IETESTCD.EQ.IE.IECAT.EQ.b14c134fbea4a4b609431f2d595f52c8ed02941f"
                     OrderNumber="9"
                     Mandatory="Yes">
               <def:WhereClauseRef WhereClauseOID="WC.IE.IETESTCD.EXCL19.IECAT.EXCLUSION"/>
            </ItemRef>
            <ItemRef ItemOID="IT.IE.IEORRES.IE.IETESTCD.EQ.IE.IECAT.EQ.c590fbc7e99150241e34868f32948fc9af05f017"
                     OrderNumber="10"
                     Mandatory="Yes">
               <def:WhereClauseRef WhereClauseOID="WC.IE.IETESTCD.EXCL22.IECAT.EXCLUSION"/>
            </ItemRef>
            <ItemRef ItemOID="IT.IE.IEORRES.IE.IETESTCD.EQ.IE.IECAT.EQ.d2526dfedf5eb369bb2187b1bdd0a026e2ea2109"
                     OrderNumber="11"
                     Mandatory="Yes">
               <def:WhereClauseRef WhereClauseOID="WC.IE.IETESTCD.EXCL23.IECAT.EXCLUSION"/>
            </ItemRef>
            <ItemRef ItemOID="IT.IE.IEORRES.IE.IETESTCD.EQ.IE.IECAT.EQ.f3bedddf2b8199edbbb409143350e5ef60e1b479"
                     OrderNumber="12"
                     Mandatory="Yes">
               <def:WhereClauseRef WhereClauseOID="WC.IE.IETESTCD.INCL02.IECAT.INCLUSION"/>
            </ItemRef>
            <ItemRef ItemOID="IT.IE.IEORRES.IE.IETESTCD.EQ.IE.IECAT.EQ.ac252f6fd298652002ccd7b1f5c317a56dfd1a68"
                     OrderNumber="13"
                     Mandatory="Yes">
               <def:WhereClauseRef WhereClauseOID="WC.IE.IETESTCD.INCL03.IECAT.INCLUSION"/>
            </ItemRef>
         </def:ValueListDef>
         <def:ValueListDef OID="VL.IS.ISORRES">
            <ItemRef ItemOID="IT.IS.ISORRES.IS.ISTESTCD.EQ.IS.ISCAT.EQ.9f49e1f91dba40926a198599cb06a00849372ad3"
                     OrderNumber="1"
                     Mandatory="No">
               <def:WhereClauseRef WhereClauseOID="WC.IS.ISTESTCD.HBEAB.ISCAT.Serology"/>
            </ItemRef>
            <ItemRef ItemOID="IT.IS.ISORRES.IS.ISTESTCD.EQ.IS.ISCAT.EQ.4baeb752ab02d8f3e92c57de5cb69805f6b49391"
                     OrderNumber="2"
                     Mandatory="No">
               <def:WhereClauseRef WhereClauseOID="WC.IS.ISTESTCD.HBSAG.ISCAT.Serology"/>
            </ItemRef>
            <ItemRef ItemOID="IT.IS.ISORRES.IS.ISTESTCD.EQ.IS.ISCAT.EQ.6d802215a88f62ff6c36a60a4f971e1ad21dec12"
                     OrderNumber="3"
                     Mandatory="No">
               <def:WhereClauseRef WhereClauseOID="WC.IS.ISTESTCD.HCAB.ISCAT.Serology"/>
            </ItemRef>
            <ItemRef ItemOID="IT.IS.ISORRES.IS.ISTESTCD.EQ.IS.ISCAT.EQ.49a7b0b8fbc1075c787eda68c80349a17952eb87"
                     OrderNumber="4"
                     Mandatory="No">
               <def:WhereClauseRef WhereClauseOID="WC.IS.ISTESTCD.HIVAGAB.ISCAT.Serology"/>
            </ItemRef>
            <ItemRef ItemOID="IT.IS.ISORRES.IS.ISTESTCD.EQ.IS.ISCAT.EQ.ecca2f3471cbd3177aa42dc98faa2683f76442ed"
                     OrderNumber="5"
                     Mandatory="No">
               <def:WhereClauseRef WhereClauseOID="WC.IS.ISTESTCD.TPLAB.ISCAT.Serology"/>
            </ItemRef>
         </def:ValueListDef>
         <def:ValueListDef OID="VL.LB.LBORRES">
            <ItemRef ItemOID="IT.LB.LBORRES.LB.LBTESTCD.EQ.LB.LBCAT.EQ.LB.LBSCAT.EQ.14ca9c1f8509858929a19e9e831e5d6e233ec458"
                     OrderNumber="1"
                     Mandatory="No">
               <def:WhereClauseRef WhereClauseOID="WC.LB.LBTESTCD.AHBDH.LBCAT.Serum Biochemistry.LBSCAT.Other unplanned examination"/>
            </ItemRef>
            <ItemRef ItemOID="IT.LB.LBORRES.LB.LBTESTCD.EQ.LB.LBCAT.EQ.c72de52b92bae651cbbc7fc287059c6bffb65f50"
                     OrderNumber="2"
                     Mandatory="No">
               <def:WhereClauseRef WhereClauseOID="WC.LB.LBTESTCD.ALB.LBCAT.Serum Biochemistry"/>
            </ItemRef>
            <ItemRef ItemOID="IT.LB.LBORRES.LB.LBTESTCD.EQ.LB.LBCAT.EQ.2bd39e2febcff5209d826020ad6dcd81f93151ad"
                     OrderNumber="3"
                     Mandatory="No">
               <def:WhereClauseRef WhereClauseOID="WC.LB.LBTESTCD.ALP.LBCAT.Serum Biochemistry"/>
            </ItemRef>
            <ItemRef ItemOID="IT.LB.LBORRES.LB.LBTESTCD.EQ.LB.LBCAT.EQ.2c54a8443f1968284c8c5633864c6e249d875f11"
                     OrderNumber="4"
                     Mandatory="No">
               <def:WhereClauseRef WhereClauseOID="WC.LB.LBTESTCD.ALT.LBCAT.Serum Biochemistry"/>
            </ItemRef>
            <ItemRef ItemOID="IT.LB.LBORRES.LB.LBTESTCD.EQ.LB.LBCAT.EQ.LB.LBSCAT.EQ.60f2563852071e6d0d2b3d20d983063398b12069"
                     OrderNumber="5"
                     Mandatory="No">
               <def:WhereClauseRef WhereClauseOID="WC.LB.LBTESTCD.AMYLASE.LBCAT.Serum Biochemistry.LBSCAT.Other unplanned examination"/>
            </ItemRef>
            <ItemRef ItemOID="IT.LB.LBORRES.LB.LBTESTCD.EQ.LB.LBCAT.EQ.LB.LBSCAT.EQ.LB.LBSPEC.EQ.15e4ddfb40f1666184dc229e57823386cf156ec2"
                     OrderNumber="6"
                     Mandatory="No">
               <def:WhereClauseRef WhereClauseOID="WC.LB.LBTESTCD.AMYLASE.LBCAT.Urine.LBSCAT.Other unplanned examination.LBSPEC.URINE"/>
            </ItemRef>
            <ItemRef ItemOID="IT.LB.LBORRES.LB.LBTESTCD.EQ.LB.LBCAT.EQ.961826392249218584ece2544273c42a99115188"
                     OrderNumber="7"
                     Mandatory="No">
               <def:WhereClauseRef WhereClauseOID="WC.LB.LBTESTCD.APTT.LBCAT.Coagulation"/>
            </ItemRef>
            <ItemRef ItemOID="IT.LB.LBORRES.LB.LBTESTCD.EQ.LB.LBCAT.EQ.46ad2484c48631aa5809bdffcddb07e1aa5b61d8"
                     OrderNumber="8"
                     Mandatory="No">
               <def:WhereClauseRef WhereClauseOID="WC.LB.LBTESTCD.AST.LBCAT.Serum Biochemistry"/>
            </ItemRef>
            <ItemRef ItemOID="IT.LB.LBORRES.LB.LBTESTCD.EQ.LB.LBCAT.EQ.LB.LBSCAT.EQ.LB.LBSPEC.EQ.a7684067d4fce25e8fe64e9268a8e14974fba0e3"
                     OrderNumber="9"
                     Mandatory="No">
               <def:WhereClauseRef WhereClauseOID="WC.LB.LBTESTCD.BACT.LBCAT.Urinary sediment.LBSCAT.Other unplanned examination.LBSPEC.URINE"/>
            </ItemRef>
            <ItemRef ItemOID="IT.LB.LBORRES.LB.LBTESTCD.EQ.LB.LBCAT.EQ.01375a3ec97df25a720492d86aea89d4b8fee61e"
                     OrderNumber="10"
                     Mandatory="No">
               <def:WhereClauseRef WhereClauseOID="WC.LB.LBTESTCD.BASO.LBCAT.Hematology"/>
            </ItemRef>
            <ItemRef ItemOID="IT.LB.LBORRES.LB.LBTESTCD.EQ.LB.LBCAT.EQ.60c998a06e11c2d8965d2306e445831a0987e316"
                     OrderNumber="11"
                     Mandatory="No">
               <def:WhereClauseRef WhereClauseOID="WC.LB.LBTESTCD.BASOLE.LBCAT.Hematology"/>
            </ItemRef>
            <ItemRef ItemOID="IT.LB.LBORRES.LB.LBTESTCD.EQ.LB.LBCAT.EQ.8b90aecb845ae6b522d0ddc59e5547733f8a88b7"
                     OrderNumber="12"
                     Mandatory="No">
               <def:WhereClauseRef WhereClauseOID="WC.LB.LBTESTCD.BILDIR.LBCAT.Serum Biochemistry"/>
            </ItemRef>
            <ItemRef ItemOID="IT.LB.LBORRES.LB.LBTESTCD.EQ.LB.LBCAT.EQ.LB.LBSCAT.EQ.581903c100f250f1586a571d9bf90fc9258fae00"
                     OrderNumber="13"
                     Mandatory="No">
               <def:WhereClauseRef WhereClauseOID="WC.LB.LBTESTCD.BILEAC.LBCAT.Serum Biochemistry.LBSCAT.Other unplanned examination"/>
            </ItemRef>
            <ItemRef ItemOID="IT.LB.LBORRES.LB.LBTESTCD.EQ.LB.LBCAT.EQ.a0dc0127baaee4183a55b112bc0e88eee5a52341"
                     OrderNumber="14"
                     Mandatory="No">
               <def:WhereClauseRef WhereClauseOID="WC.LB.LBTESTCD.BILI.LBCAT.Serum Biochemistry"/>
            </ItemRef>
            <ItemRef ItemOID="IT.LB.LBORRES.LB.LBTESTCD.EQ.LB.LBCAT.EQ.LB.LBSPEC.EQ.159a290eb19c15e5217f5fc8185bb1db727fe251"
                     OrderNumber="15"
                     Mandatory="No">
               <def:WhereClauseRef WhereClauseOID="WC.LB.LBTESTCD.BILI.LBCAT.Urinalysis.LBSPEC.URINE"/>
            </ItemRef>
            <ItemRef ItemOID="IT.LB.LBORRES.LB.LBTESTCD.EQ.LB.LBCAT.EQ.00eef09399c7232518b16744336af02c1b40cc2b"
                     OrderNumber="16"
                     Mandatory="No">
               <def:WhereClauseRef WhereClauseOID="WC.LB.LBTESTCD.CA.LBCAT.Serum Biochemistry"/>
            </ItemRef>
            <ItemRef ItemOID="IT.LB.LBORRES.LB.LBTESTCD.EQ.LB.LBCAT.EQ.6aeda03d896dc83578274274f5f3ef6ac7268002"
                     OrderNumber="17"
                     Mandatory="No">
               <def:WhereClauseRef WhereClauseOID="WC.LB.LBTESTCD.CANNAB.LBCAT.Urine Drugs of Abuse Test"/>
            </ItemRef>
            <ItemRef ItemOID="IT.LB.LBORRES.LB.LBTESTCD.EQ.LB.LBCAT.EQ.54303216706072fc4430030ff84995e7af8b8372"
                     OrderNumber="18"
                     Mandatory="No">
               <def:WhereClauseRef WhereClauseOID="WC.LB.LBTESTCD.CK.LBCAT.Serum Biochemistry"/>
            </ItemRef>
            <ItemRef ItemOID="IT.LB.LBORRES.LB.LBTESTCD.EQ.LB.LBCAT.EQ.LB.LBSCAT.EQ.f5f5e37ddd009a83c3efbcbc28aef0dc111952ef"
                     OrderNumber="19"
                     Mandatory="No">
               <def:WhereClauseRef WhereClauseOID="WC.LB.LBTESTCD.CK.LBCAT.Serum Biochemistry.LBSCAT.Other unplanned examination"/>
            </ItemRef>
            <ItemRef ItemOID="IT.LB.LBORRES.LB.LBTESTCD.EQ.LB.LBCAT.EQ.b971f2dadec732fe41ca44bf030bbb9a3371986d"
                     OrderNumber="20"
                     Mandatory="No">
               <def:WhereClauseRef WhereClauseOID="WC.LB.LBTESTCD.CL.LBCAT.Serum Biochemistry"/>
            </ItemRef>
            <ItemRef ItemOID="IT.LB.LBORRES.LB.LBTESTCD.EQ.LB.LBCAT.EQ.ec9072373860f97fe7788c89c74a2fa5b6958ad8"
                     OrderNumber="21"
                     Mandatory="No">
               <def:WhereClauseRef WhereClauseOID="WC.LB.LBTESTCD.CREAT.LBCAT.Serum Biochemistry"/>
            </ItemRef>
            <ItemRef ItemOID="IT.LB.LBORRES.LB.LBTESTCD.EQ.LB.LBCAT.EQ.9751f94b9cb32732dd1ec31bf8887e419fe72ba6"
                     OrderNumber="22"
                     Mandatory="No">
               <def:WhereClauseRef WhereClauseOID="WC.LB.LBTESTCD.EOS.LBCAT.Hematology"/>
            </ItemRef>
            <ItemRef ItemOID="IT.LB.LBORRES.LB.LBTESTCD.EQ.LB.LBCAT.EQ.ca11887a1d6f3043d2552980fbc01583968a8aa9"
                     OrderNumber="23"
                     Mandatory="No">
               <def:WhereClauseRef WhereClauseOID="WC.LB.LBTESTCD.EOSLE.LBCAT.Hematology"/>
            </ItemRef>
            <ItemRef ItemOID="IT.LB.LBORRES.LB.LBTESTCD.EQ.LB.LBCAT.EQ.2bb2caf4c5112fa4cd608865fd228090cfdb8438"
                     OrderNumber="24"
                     Mandatory="No">
               <def:WhereClauseRef WhereClauseOID="WC.LB.LBTESTCD.ETHANOL.LBCAT.Breathalyzer Test"/>
            </ItemRef>
            <ItemRef ItemOID="IT.LB.LBORRES.LB.LBTESTCD.EQ.LB.LBCAT.EQ.a009599d7ccc2ab42fb9609113828fe090583c62"
                     OrderNumber="25"
                     Mandatory="No">
               <def:WhereClauseRef WhereClauseOID="WC.LB.LBTESTCD.FIBRINO.LBCAT.Coagulation"/>
            </ItemRef>
            <ItemRef ItemOID="IT.LB.LBORRES.LB.LBTESTCD.EQ.LB.LBCAT.EQ.7e5cfd3d8fcfcfb6fe550e06069fa5707e43f63e"
                     OrderNumber="26"
                     Mandatory="No">
               <def:WhereClauseRef WhereClauseOID="WC.LB.LBTESTCD.GGT.LBCAT.Serum Biochemistry"/>
            </ItemRef>
            <ItemRef ItemOID="IT.LB.LBORRES.LB.LBTESTCD.EQ.LB.LBCAT.EQ.4e1297b7f5665f1634c30328346d7dde9f78b015"
                     OrderNumber="27"
                     Mandatory="No">
               <def:WhereClauseRef WhereClauseOID="WC.LB.LBTESTCD.GLOBUL.LBCAT.Serum Biochemistry"/>
            </ItemRef>
            <ItemRef ItemOID="IT.LB.LBORRES.LB.LBTESTCD.EQ.LB.LBCAT.EQ.LB.LBSPEC.EQ.ebcdd20a976c8342a69903c862398ecc26ab4789"
                     OrderNumber="28"
                     Mandatory="No">
               <def:WhereClauseRef WhereClauseOID="WC.LB.LBTESTCD.GLUC.LBCAT.Urinalysis.LBSPEC.URINE"/>
            </ItemRef>
            <ItemRef ItemOID="IT.LB.LBORRES.LB.LBTESTCD.EQ.LB.LBCAT.EQ.LB.LBSPEC.EQ.ab67321d246a8929a3e664bd52979c54cfc408c5"
                     OrderNumber="29"
                     Mandatory="No">
               <def:WhereClauseRef WhereClauseOID="WC.LB.LBTESTCD.HCG.LBCAT.Pregnancy Test.LBSPEC.SERUM"/>
            </ItemRef>
            <ItemRef ItemOID="IT.LB.LBORRES.LB.LBTESTCD.EQ.LB.LBCAT.EQ.LB.LBSPEC.EQ.0d6ed7459978d1edf079d68633969a70508744e5"
                     OrderNumber="30"
                     Mandatory="No">
               <def:WhereClauseRef WhereClauseOID="WC.LB.LBTESTCD.HCG.LBCAT.Pregnancy Test.LBSPEC.URINE"/>
            </ItemRef>
            <ItemRef ItemOID="IT.LB.LBORRES.LB.LBTESTCD.EQ.LB.LBCAT.EQ.cd29a5211d8e04b8e71f462f39a40a141421da58"
                     OrderNumber="31"
                     Mandatory="No">
               <def:WhereClauseRef WhereClauseOID="WC.LB.LBTESTCD.HCT.LBCAT.Hematology"/>
            </ItemRef>
            <ItemRef ItemOID="IT.LB.LBORRES.LB.LBTESTCD.EQ.LB.LBCAT.EQ.6bba021679dd0cb93f52bbab1833de5799f5c167"
                     OrderNumber="32"
                     Mandatory="No">
               <def:WhereClauseRef WhereClauseOID="WC.LB.LBTESTCD.HGB.LBCAT.Hematology"/>
            </ItemRef>
            <ItemRef ItemOID="IT.LB.LBORRES.LB.LBTESTCD.EQ.LB.LBCAT.EQ.6c4e08ae1a8f262c83ee45c34cbf42f5b7954702"
                     OrderNumber="33"
                     Mandatory="No">
               <def:WhereClauseRef WhereClauseOID="WC.LB.LBTESTCD.K.LBCAT.Serum Biochemistry"/>
            </ItemRef>
            <ItemRef ItemOID="IT.LB.LBORRES.LB.LBTESTCD.EQ.LB.LBCAT.EQ.218e9ce80221d9d831a0aa0b3e127f2154c93b34"
                     OrderNumber="34"
                     Mandatory="No">
               <def:WhereClauseRef WhereClauseOID="WC.LB.LBTESTCD.KETAMINE.LBCAT.Urine Drugs of Abuse Test"/>
            </ItemRef>
            <ItemRef ItemOID="IT.LB.LBORRES.LB.LBTESTCD.EQ.LB.LBCAT.EQ.LB.LBSPEC.EQ.5583e3a53bcbbc17e52f68e4ca87f6c99775f909"
                     OrderNumber="35"
                     Mandatory="No">
               <def:WhereClauseRef WhereClauseOID="WC.LB.LBTESTCD.KETONES.LBCAT.Urinalysis.LBSPEC.URINE"/>
            </ItemRef>
            <ItemRef ItemOID="IT.LB.LBORRES.LB.LBTESTCD.EQ.LB.LBCAT.EQ.LB.LBSPEC.EQ.e4752102cfb20875901ca85308c935e5cd4b1513"
                     OrderNumber="36"
                     Mandatory="No">
               <def:WhereClauseRef WhereClauseOID="WC.LB.LBTESTCD.LBALL.LBCAT.Pregnancy Test.LBSPEC.SERUM"/>
            </ItemRef>
            <ItemRef ItemOID="IT.LB.LBORRES.LB.LBTESTCD.EQ.LB.LBCAT.EQ.LB.LBSPEC.EQ.7ca918aef23b6b289c244f9c126a8755b8b16bae"
                     OrderNumber="37"
                     Mandatory="No">
               <def:WhereClauseRef WhereClauseOID="WC.LB.LBTESTCD.LBALL.LBCAT.Pregnancy Test.LBSPEC.URINE"/>
            </ItemRef>
            <ItemRef ItemOID="IT.LB.LBORRES.LB.LBTESTCD.EQ.LB.LBCAT.EQ.5dde8eb58a8095e4a1b1a695cd0e67a8f11fae23"
                     OrderNumber="38"
                     Mandatory="No">
               <def:WhereClauseRef WhereClauseOID="WC.LB.LBTESTCD.LDH.LBCAT.Serum Biochemistry"/>
            </ItemRef>
            <ItemRef ItemOID="IT.LB.LBORRES.LB.LBTESTCD.EQ.LB.LBCAT.EQ.LB.LBSCAT.EQ.LB.LBSPEC.EQ.b1e5fea4a1e4d5d0166520791d0b63a632f2f9f4"
                     OrderNumber="39"
                     Mandatory="No">
               <def:WhereClauseRef WhereClauseOID="WC.LB.LBTESTCD.LEUKASE.LBCAT.Urinalysis.LBSCAT.Other unplanned examination.LBSPEC.URINE"/>
            </ItemRef>
            <ItemRef ItemOID="IT.LB.LBORRES.LB.LBTESTCD.EQ.LB.LBCAT.EQ.LB.LBSCAT.EQ.LB.LBSPEC.EQ.2ba04ff4677ef9b3da86a90a15b1975182557c96"
                     OrderNumber="40"
                     Mandatory="No">
               <def:WhereClauseRef WhereClauseOID="WC.LB.LBTESTCD.LEUKASE.LBCAT.Urinary sediment.LBSCAT.Other unplanned examination.LBSPEC.URINE"/>
            </ItemRef>
            <ItemRef ItemOID="IT.LB.LBORRES.LB.LBTESTCD.EQ.LB.LBCAT.EQ.a930b1664e56864a43dea51ab3e35e5a6ea5633b"
                     OrderNumber="41"
                     Mandatory="No">
               <def:WhereClauseRef WhereClauseOID="WC.LB.LBTESTCD.LYM.LBCAT.Hematology"/>
            </ItemRef>
            <ItemRef ItemOID="IT.LB.LBORRES.LB.LBTESTCD.EQ.LB.LBCAT.EQ.abd9da7e2cffef2c32ed8adbf2e7e990c926102a"
                     OrderNumber="42"
                     Mandatory="No">
               <def:WhereClauseRef WhereClauseOID="WC.LB.LBTESTCD.LYMLE.LBCAT.Hematology"/>
            </ItemRef>
            <ItemRef ItemOID="IT.LB.LBORRES.LB.LBTESTCD.EQ.LB.LBCAT.EQ.dce0fe45d7aed9693bd8e95e1f96a456ae37f9b4"
                     OrderNumber="43"
                     Mandatory="No">
               <def:WhereClauseRef WhereClauseOID="WC.LB.LBTESTCD.MCH.LBCAT.Hematology"/>
            </ItemRef>
            <ItemRef ItemOID="IT.LB.LBORRES.LB.LBTESTCD.EQ.LB.LBCAT.EQ.f7424ca20c988177abfdc61c48833139b40ebce0"
                     OrderNumber="44"
                     Mandatory="No">
               <def:WhereClauseRef WhereClauseOID="WC.LB.LBTESTCD.MCHC.LBCAT.Hematology"/>
            </ItemRef>
            <ItemRef ItemOID="IT.LB.LBORRES.LB.LBTESTCD.EQ.LB.LBCAT.EQ.4cb5200f77a0e7bd4aa2779a5aceb3391c92cd1c"
                     OrderNumber="45"
                     Mandatory="No">
               <def:WhereClauseRef WhereClauseOID="WC.LB.LBTESTCD.MCV.LBCAT.Hematology"/>
            </ItemRef>
            <ItemRef ItemOID="IT.LB.LBORRES.LB.LBTESTCD.EQ.LB.LBCAT.EQ.3d9ff7385600c07b32053907881326df1559f03a"
                     OrderNumber="46"
                     Mandatory="No">
               <def:WhereClauseRef WhereClauseOID="WC.LB.LBTESTCD.MDMA.LBCAT.Urine Drugs of Abuse Test"/>
            </ItemRef>
            <ItemRef ItemOID="IT.LB.LBORRES.LB.LBTESTCD.EQ.LB.LBCAT.EQ.0908f871ba46c5632b2be7065c153a6fade6aeb0"
                     OrderNumber="47"
                     Mandatory="No">
               <def:WhereClauseRef WhereClauseOID="WC.LB.LBTESTCD.METHAMPH.LBCAT.Urine Drugs of Abuse Test"/>
            </ItemRef>
            <ItemRef ItemOID="IT.LB.LBORRES.LB.LBTESTCD.EQ.LB.LBCAT.EQ.39a54aa9fc60f71c591d35ea5dfa3c41280f1cc0"
                     OrderNumber="48"
                     Mandatory="No">
               <def:WhereClauseRef WhereClauseOID="WC.LB.LBTESTCD.MONO.LBCAT.Hematology"/>
            </ItemRef>
            <ItemRef ItemOID="IT.LB.LBORRES.LB.LBTESTCD.EQ.LB.LBCAT.EQ.37a956c03e79b705ae11099af2b17dac2b8aeaf0"
                     OrderNumber="49"
                     Mandatory="No">
               <def:WhereClauseRef WhereClauseOID="WC.LB.LBTESTCD.MONOLE.LBCAT.Hematology"/>
            </ItemRef>
            <ItemRef ItemOID="IT.LB.LBORRES.LB.LBTESTCD.EQ.LB.LBCAT.EQ.8860cbd11ca214fdcb31b2218092a7ca5b37b454"
                     OrderNumber="50"
                     Mandatory="No">
               <def:WhereClauseRef WhereClauseOID="WC.LB.LBTESTCD.MORPHINE.LBCAT.Urine Drugs of Abuse Test"/>
            </ItemRef>
            <ItemRef ItemOID="IT.LB.LBORRES.LB.LBTESTCD.EQ.LB.LBCAT.EQ.7977cf3b259e132d0a16700b0db020a501d394a0"
                     OrderNumber="51"
                     Mandatory="No">
               <def:WhereClauseRef WhereClauseOID="WC.LB.LBTESTCD.NEUT.LBCAT.Hematology"/>
            </ItemRef>
            <ItemRef ItemOID="IT.LB.LBORRES.LB.LBTESTCD.EQ.LB.LBCAT.EQ.b4eaff379e8ab3b195b3a2701cde33c64ebc28ee"
                     OrderNumber="52"
                     Mandatory="No">
               <def:WhereClauseRef WhereClauseOID="WC.LB.LBTESTCD.NEUTLE.LBCAT.Hematology"/>
            </ItemRef>
            <ItemRef ItemOID="IT.LB.LBORRES.LB.LBTESTCD.EQ.LB.LBCAT.EQ.LB.LBSPEC.EQ.5473d8d2f7b1176cf0aa9a3a953a4af539a4acad"
                     OrderNumber="53"
                     Mandatory="No">
               <def:WhereClauseRef WhereClauseOID="WC.LB.LBTESTCD.NITRITE.LBCAT.Urinalysis.LBSPEC.URINE"/>
            </ItemRef>
            <ItemRef ItemOID="IT.LB.LBORRES.LB.LBTESTCD.EQ.LB.LBCAT.EQ.LB.LBSCAT.EQ.LB.LBSPEC.EQ.fed6ad16c225138c0f8b885137719607942e34a9"
                     OrderNumber="54"
                     Mandatory="No">
               <def:WhereClauseRef WhereClauseOID="WC.LB.LBTESTCD.OCCBLD.LBCAT.Urinalysis.LBSCAT.Other unplanned examination.LBSPEC.URINE"/>
            </ItemRef>
            <ItemRef ItemOID="IT.LB.LBORRES.LB.LBTESTCD.EQ.LB.LBCAT.EQ.LB.LBSCAT.EQ.LB.LBSPEC.EQ.dad6817e354f15dd8f510589b7c20e0fe57e89a9"
                     OrderNumber="55"
                     Mandatory="No">
               <def:WhereClauseRef WhereClauseOID="WC.LB.LBTESTCD.OCCBLD.LBCAT.Urinary sediment.LBSCAT.Other unplanned examination.LBSPEC.URINE"/>
            </ItemRef>
            <ItemRef ItemOID="IT.LB.LBORRES.LB.LBTESTCD.EQ.LB.LBCAT.EQ.LB.LBSCAT.EQ.LB.LBSPEC.EQ.2fcab383d69e038edd603096aa2c009aa566856f"
                     OrderNumber="56"
                     Mandatory="No">
               <def:WhereClauseRef WhereClauseOID="WC.LB.LBTESTCD.OTHERS.LBCAT.Urinalysis.LBSCAT.Other unplanned examination.LBSPEC.URINE"/>
            </ItemRef>
            <ItemRef ItemOID="IT.LB.LBORRES.LB.LBTESTCD.EQ.LB.LBCAT.EQ.LB.LBSPEC.EQ.e84eed8a8d3d4725614f88a30bcb5da908b51e0c"
                     OrderNumber="57"
                     Mandatory="No">
               <def:WhereClauseRef WhereClauseOID="WC.LB.LBTESTCD.PH.LBCAT.Urinalysis.LBSPEC.URINE"/>
            </ItemRef>
            <ItemRef ItemOID="IT.LB.LBORRES.LB.LBTESTCD.EQ.LB.LBCAT.EQ.0f549f14166d2c8886da5f3b942df2fddb611941"
                     OrderNumber="58"
                     Mandatory="No">
               <def:WhereClauseRef WhereClauseOID="WC.LB.LBTESTCD.PHOS.LBCAT.Serum Biochemistry"/>
            </ItemRef>
            <ItemRef ItemOID="IT.LB.LBORRES.LB.LBTESTCD.EQ.LB.LBCAT.EQ.9b400d5f0d24a31193f6900f065c08dbbe98736c"
                     OrderNumber="59"
                     Mandatory="No">
               <def:WhereClauseRef WhereClauseOID="WC.LB.LBTESTCD.PLAT.LBCAT.Hematology"/>
            </ItemRef>
            <ItemRef ItemOID="IT.LB.LBORRES.LB.LBTESTCD.EQ.LB.LBCAT.EQ.61255fdd3db29ba04a72c238d12a1e3c32c7c46f"
                     OrderNumber="60"
                     Mandatory="No">
               <def:WhereClauseRef WhereClauseOID="WC.LB.LBTESTCD.PROT.LBCAT.Serum Biochemistry"/>
            </ItemRef>
            <ItemRef ItemOID="IT.LB.LBORRES.LB.LBTESTCD.EQ.LB.LBCAT.EQ.LB.LBSPEC.EQ.c8bff4e07f7c2a776369f81ad53f8641ee965681"
                     OrderNumber="61"
                     Mandatory="No">
               <def:WhereClauseRef WhereClauseOID="WC.LB.LBTESTCD.PROT.LBCAT.Urinalysis.LBSPEC.URINE"/>
            </ItemRef>
            <ItemRef ItemOID="IT.LB.LBORRES.LB.LBTESTCD.EQ.LB.LBCAT.EQ.236c3aabba0a63b42c364cf8469cb28072bab3d4"
                     OrderNumber="62"
                     Mandatory="No">
               <def:WhereClauseRef WhereClauseOID="WC.LB.LBTESTCD.PT.LBCAT.Coagulation"/>
            </ItemRef>
            <ItemRef ItemOID="IT.LB.LBORRES.LB.LBTESTCD.EQ.LB.LBCAT.EQ.6412e0e44813abd99b60c9ce58a7dbb037e3a4a3"
                     OrderNumber="63"
                     Mandatory="No">
               <def:WhereClauseRef WhereClauseOID="WC.LB.LBTESTCD.RBC.LBCAT.Hematology"/>
            </ItemRef>
            <ItemRef ItemOID="IT.LB.LBORRES.LB.LBTESTCD.EQ.LB.LBCAT.EQ.LB.LBSPEC.EQ.13819d5648df37751106024f1ef56e2da403cacc"
                     OrderNumber="64"
                     Mandatory="No">
               <def:WhereClauseRef WhereClauseOID="WC.LB.LBTESTCD.RBC.LBCAT.Urinalysis.LBSPEC.URINE"/>
            </ItemRef>
            <ItemRef ItemOID="IT.LB.LBORRES.LB.LBTESTCD.EQ.LB.LBCAT.EQ.LB.LBSCAT.EQ.LB.LBSPEC.EQ.9468909a2dc148687792dc2eac3bb8a92b79ce7a"
                     OrderNumber="65"
                     Mandatory="No">
               <def:WhereClauseRef WhereClauseOID="WC.LB.LBTESTCD.RBC.LBCAT.Urinary sediment.LBSCAT.Other unplanned examination.LBSPEC.URINE"/>
            </ItemRef>
            <ItemRef ItemOID="IT.LB.LBORRES.LB.LBTESTCD.EQ.LB.LBCAT.EQ.LB.LBSCAT.EQ.LB.LBSPEC.EQ.c39dff290f25bb2e2f298a9c11bb2a1b49e31dc7"
                     OrderNumber="66"
                     Mandatory="No">
               <def:WhereClauseRef WhereClauseOID="WC.LB.LBTESTCD.RBCM.LBCAT.Urinary sediment.LBSCAT.Other unplanned examination.LBSPEC.URINE"/>
            </ItemRef>
            <ItemRef ItemOID="IT.LB.LBORRES.LB.LBTESTCD.EQ.LB.LBCAT.EQ.0273668ad9d3b85658da3965d71a979cb3393ae7"
                     OrderNumber="67"
                     Mandatory="No">
               <def:WhereClauseRef WhereClauseOID="WC.LB.LBTESTCD.SODIUM.LBCAT.Serum Biochemistry"/>
            </ItemRef>
            <ItemRef ItemOID="IT.LB.LBORRES.LB.LBTESTCD.EQ.LB.LBCAT.EQ.LB.LBSPEC.EQ.84f47b107b07ed50e6baa804e77e6a95dfe9a660"
                     OrderNumber="68"
                     Mandatory="No">
               <def:WhereClauseRef WhereClauseOID="WC.LB.LBTESTCD.SPGRAV.LBCAT.Urinalysis.LBSPEC.URINE"/>
            </ItemRef>
            <ItemRef ItemOID="IT.LB.LBORRES.LB.LBTESTCD.EQ.LB.LBCAT.EQ.LB.LBSCAT.EQ.0221f75f70e22b4b08bc62fb0c44ce50688de66b"
                     OrderNumber="69"
                     Mandatory="No">
               <def:WhereClauseRef WhereClauseOID="WC.LB.LBTESTCD.URATE.LBCAT.Serum Biochemistry.LBSCAT.Other unplanned examination"/>
            </ItemRef>
            <ItemRef ItemOID="IT.LB.LBORRES.LB.LBTESTCD.EQ.LB.LBCAT.EQ.8f9b30f53ea109e168a17269bb2fa7f02077790b"
                     OrderNumber="70"
                     Mandatory="No">
               <def:WhereClauseRef WhereClauseOID="WC.LB.LBTESTCD.UREA.LBCAT.Serum Biochemistry"/>
            </ItemRef>
            <ItemRef ItemOID="IT.LB.LBORRES.LB.LBTESTCD.EQ.LB.LBCAT.EQ.LB.LBSPEC.EQ.c18acd834b9adb784cc06b6727e9038c67444edf"
                     OrderNumber="71"
                     Mandatory="No">
               <def:WhereClauseRef WhereClauseOID="WC.LB.LBTESTCD.UROBIL.LBCAT.Urinalysis.LBSPEC.URINE"/>
            </ItemRef>
            <ItemRef ItemOID="IT.LB.LBORRES.LB.LBTESTCD.EQ.LB.LBCAT.EQ.73b2bacb5719547f9e82774e18a2f3b2395ae3ee"
                     OrderNumber="72"
                     Mandatory="No">
               <def:WhereClauseRef WhereClauseOID="WC.LB.LBTESTCD.WBC.LBCAT.Hematology"/>
            </ItemRef>
            <ItemRef ItemOID="IT.LB.LBORRES.LB.LBTESTCD.EQ.LB.LBCAT.EQ.LB.LBSPEC.EQ.3af9f9cb28acc664f4d931c8731aa6314a9c8c57"
                     OrderNumber="73"
                     Mandatory="No">
               <def:WhereClauseRef WhereClauseOID="WC.LB.LBTESTCD.WBC.LBCAT.Urinalysis.LBSPEC.URINE"/>
            </ItemRef>
            <ItemRef ItemOID="IT.LB.LBORRES.LB.LBTESTCD.EQ.LB.LBCAT.EQ.LB.LBSCAT.EQ.LB.LBSPEC.EQ.f39590b9059eea377f4053168ea149c02b64d5ce"
                     OrderNumber="74"
                     Mandatory="No">
               <def:WhereClauseRef WhereClauseOID="WC.LB.LBTESTCD.WBC.LBCAT.Urinary sediment.LBSCAT.Other unplanned examination.LBSPEC.URINE"/>
            </ItemRef>
            <ItemRef ItemOID="IT.LB.LBORRES.LB.LBTESTCD.EQ.LB.LBCAT.EQ.LB.LBSCAT.EQ.LB.LBSPEC.EQ.46e55ffee045d32e4ad1a9554be5168ba303cef7"
                     OrderNumber="75"
                     Mandatory="No">
               <def:WhereClauseRef WhereClauseOID="WC.LB.LBTESTCD.WBCM.LBCAT.Urinary sediment.LBSCAT.Other unplanned examination.LBSPEC.URINE"/>
            </ItemRef>
         </def:ValueListDef>
         <def:ValueListDef OID="VL.PC.PCORRES">
            <ItemRef ItemOID="IT.PC.PCORRES.PC.PCTESTCD.EQ.PC.PCCAT.EQ.PC.PCSPEC.EQ.117bf0b65938933c8a30de1daad09331dd33667e"
                     OrderNumber="1"
                     Mandatory="No">
               <def:WhereClauseRef WhereClauseOID="WC.PC.PCTESTCD.GENACID.PCCAT.ANALYTE.PCSPEC.URINE"/>
            </ItemRef>
            <ItemRef ItemOID="IT.PC.PCORRES.PC.PCTESTCD.EQ.PC.PCCAT.EQ.PC.PCSPEC.EQ.7260508c0b85d3ba93c2e7477fbcaaf2110268ea"
                     OrderNumber="2"
                     Mandatory="No">
               <def:WhereClauseRef WhereClauseOID="WC.PC.PCTESTCD.SALIACID.PCCAT.ANALYTE.PCSPEC.PLASMA"/>
            </ItemRef>
            <ItemRef ItemOID="IT.PC.PCORRES.PC.PCTESTCD.EQ.PC.PCCAT.EQ.PC.PCSPEC.EQ.ec25094b54ecafcd9770f7719c185667033f0cf4"
                     OrderNumber="3"
                     Mandatory="No">
               <def:WhereClauseRef WhereClauseOID="WC.PC.PCTESTCD.SALIACID.PCCAT.ANALYTE.PCSPEC.URINE"/>
            </ItemRef>
            <ItemRef ItemOID="IT.PC.PCORRES.PC.PCTESTCD.EQ.PC.PCCAT.EQ.PC.PCSPEC.EQ.e018fe78249d3b5ff78af065fb4b0d2dffa410a9"
                     OrderNumber="4"
                     Mandatory="No">
               <def:WhereClauseRef WhereClauseOID="WC.PC.PCTESTCD.SALICY.PCCAT.ANALYTE.PCSPEC.URINE"/>
            </ItemRef>
            <ItemRef ItemOID="IT.PC.PCORRES.PC.PCTESTCD.EQ.PC.PCCAT.EQ.PC.PCSPEC.EQ.b760ceca2bf7e8ba046c9af8ed3b093729b12e67"
                     OrderNumber="5"
                     Mandatory="No">
               <def:WhereClauseRef WhereClauseOID="WC.PC.PCTESTCD.VOLUME.PCCAT.SPECIMEN PROPERTY.PCSPEC.URINE"/>
            </ItemRef>
            <ItemRef ItemOID="IT.PC.PCORRES.PC.PCTESTCD.EQ.PC.PCCAT.EQ.PC.PCSPEC.EQ.a620128495ff2a9d7d1729c0b6de173d0e637fec"
                     OrderNumber="6"
                     Mandatory="No">
               <def:WhereClauseRef WhereClauseOID="WC.PC.PCTESTCD.YJ001.PCCAT.ANALYTE.PCSPEC.PLASMA"/>
            </ItemRef>
            <ItemRef ItemOID="IT.PC.PCORRES.PC.PCTESTCD.EQ.PC.PCCAT.EQ.PC.PCSPEC.EQ.2d4c2fb045fc79806ad3f40bca9e6fc82fb415db"
                     OrderNumber="7"
                     Mandatory="No">
               <def:WhereClauseRef WhereClauseOID="WC.PC.PCTESTCD.YJ001A.PCCAT.ANALYTE.PCSPEC.PLASMA"/>
            </ItemRef>
            <ItemRef ItemOID="IT.PC.PCORRES.PC.PCTESTCD.EQ.PC.PCCAT.EQ.PC.PCSPEC.EQ.b52f91f8ca0bfdcf3d59c8e5705d6907d7b5670c"
                     OrderNumber="8"
                     Mandatory="No">
               <def:WhereClauseRef WhereClauseOID="WC.PC.PCTESTCD.YJ001B.PCCAT.ANALYTE.PCSPEC.PLASMA"/>
            </ItemRef>
            <ItemRef ItemOID="IT.PC.PCORRES.PC.PCTESTCD.EQ.PC.PCCAT.EQ.PC.PCSPEC.EQ.68388e9be47f2461444ecdbaf2dc2f7a7c57407e"
                     OrderNumber="9"
                     Mandatory="No">
               <def:WhereClauseRef WhereClauseOID="WC.PC.PCTESTCD.YJ001C.PCCAT.ANALYTE.PCSPEC.PLASMA"/>
            </ItemRef>
         </def:ValueListDef>
         <def:ValueListDef OID="VL.PE.PEORRES">
            <ItemRef ItemOID="IT.PE.PEORRES.PE.PETESTCD.EQ.664791f3ecd0bcf3387a67a7f1d43f2baf1fde19"
                     OrderNumber="1"
                     Mandatory="No">
               <def:WhereClauseRef WhereClauseOID="WC.PE.PETESTCD.ABD"/>
            </ItemRef>
            <ItemRef ItemOID="IT.PE.PEORRES.PE.PETESTCD.EQ.4d8ae669d2e780c1b77f067184f59e9f9a519bfb"
                     OrderNumber="2"
                     Mandatory="No">
               <def:WhereClauseRef WhereClauseOID="WC.PE.PETESTCD.CHE"/>
            </ItemRef>
            <ItemRef ItemOID="IT.PE.PEORRES.PE.PETESTCD.EQ.7138a51661947b19b5088da5a2bfede2876f49b9"
                     OrderNumber="3"
                     Mandatory="No">
               <def:WhereClauseRef WhereClauseOID="WC.PE.PETESTCD.HEAD"/>
            </ItemRef>
            <ItemRef ItemOID="IT.PE.PEORRES.PE.PETESTCD.EQ.60c8d13a6ec928e79818bac27b761aee54d2d214"
                     OrderNumber="4"
                     Mandatory="No">
               <def:WhereClauseRef WhereClauseOID="WC.PE.PETESTCD.LYM"/>
            </ItemRef>
            <ItemRef ItemOID="IT.PE.PEORRES.PE.PETESTCD.EQ.4bf6b5d5881cf02abe5e4d7a21af9eff128bf61e"
                     OrderNumber="5"
                     Mandatory="No">
               <def:WhereClauseRef WhereClauseOID="WC.PE.PETESTCD.MUS"/>
            </ItemRef>
            <ItemRef ItemOID="IT.PE.PEORRES.PE.PETESTCD.EQ.9d0b4eb177ead6156444685d8a80869356c5a70d"
                     OrderNumber="6"
                     Mandatory="No">
               <def:WhereClauseRef WhereClauseOID="WC.PE.PETESTCD.NECK"/>
            </ItemRef>
            <ItemRef ItemOID="IT.PE.PEORRES.PE.PETESTCD.EQ.36aaafaf55beefbc1720ccfb0cf5cc27bf67d8fc"
                     OrderNumber="7"
                     Mandatory="No">
               <def:WhereClauseRef WhereClauseOID="WC.PE.PETESTCD.SKI"/>
            </ItemRef>
            <ItemRef ItemOID="IT.PE.PEORRES.PE.PETESTCD.EQ.576bfa9599018ae4ab50451e1a4d78e4622222be"
                     OrderNumber="8"
                     Mandatory="No">
               <def:WhereClauseRef WhereClauseOID="WC.PE.PETESTCD.SPI"/>
            </ItemRef>
         </def:ValueListDef>
         <def:ValueListDef OID="VL.PP.PPORRES">
            <ItemRef ItemOID="IT.PP.PPORRES.PP.PPTESTCD.EQ.PP.PPCAT.EQ.PP.PPSPEC.EQ.292ae224343faaea5588e9a58a4e9a4067c65ade"
                     OrderNumber="1"
                     Mandatory="No">
               <def:WhereClauseRef WhereClauseOID="WC.PP.PPTESTCD.AUCIFO.PPCAT.YJ001-C.PPSPEC.PLASMA"/>
            </ItemRef>
            <ItemRef ItemOID="IT.PP.PPORRES.PP.PPTESTCD.EQ.PP.PPCAT.EQ.PP.PPSPEC.EQ.6df5e7f2edaad69af0273247be2d827afd5f9d77"
                     OrderNumber="2"
                     Mandatory="No">
               <def:WhereClauseRef WhereClauseOID="WC.PP.PPTESTCD.AUCLST.PPCAT.YJ001-C.PPSPEC.PLASMA"/>
            </ItemRef>
            <ItemRef ItemOID="IT.PP.PPORRES.PP.PPTESTCD.EQ.PP.PPCAT.EQ.PP.PPSPEC.EQ.2e0c107e2f27153c3c31d45c6f71329bf610da7a"
                     OrderNumber="3"
                     Mandatory="No">
               <def:WhereClauseRef WhereClauseOID="WC.PP.PPTESTCD.CLFO.PPCAT.YJ001-C.PPSPEC.PLASMA"/>
            </ItemRef>
            <ItemRef ItemOID="IT.PP.PPORRES.PP.PPTESTCD.EQ.PP.PPCAT.EQ.PP.PPSPEC.EQ.b568f02b0caddaa57692fda7beb23f0f19e15352"
                     OrderNumber="4"
                     Mandatory="No">
               <def:WhereClauseRef WhereClauseOID="WC.PP.PPTESTCD.CMAX.PPCAT.YJ001-C.PPSPEC.PLASMA"/>
            </ItemRef>
            <ItemRef ItemOID="IT.PP.PPORRES.PP.PPTESTCD.EQ.PP.PPCAT.EQ.PP.PPSPEC.EQ.98774738a5391cf778a5969359b6dea7d8b9978f"
                     OrderNumber="5"
                     Mandatory="No">
               <def:WhereClauseRef WhereClauseOID="WC.PP.PPTESTCD.LAMZ.PPCAT.YJ001-C.PPSPEC.PLASMA"/>
            </ItemRef>
            <ItemRef ItemOID="IT.PP.PPORRES.PP.PPTESTCD.EQ.PP.PPCAT.EQ.PP.PPSPEC.EQ.3220253720ea565e42485be7702f6b59eef051be"
                     OrderNumber="6"
                     Mandatory="No">
               <def:WhereClauseRef WhereClauseOID="WC.PP.PPTESTCD.LAMZHL.PPCAT.YJ001-C.PPSPEC.PLASMA"/>
            </ItemRef>
            <ItemRef ItemOID="IT.PP.PPORRES.PP.PPTESTCD.EQ.PP.PPCAT.EQ.PP.PPSPEC.EQ.2043db29d0e2dbde35df043782e11b58f9a007ce"
                     OrderNumber="7"
                     Mandatory="No">
               <def:WhereClauseRef WhereClauseOID="WC.PP.PPTESTCD.MRTIFO.PPCAT.YJ001-C.PPSPEC.PLASMA"/>
            </ItemRef>
            <ItemRef ItemOID="IT.PP.PPORRES.PP.PPTESTCD.EQ.PP.PPCAT.EQ.PP.PPSPEC.EQ.5d8d517ceac3598b78a4e2c09dd5816b7b853784"
                     OrderNumber="8"
                     Mandatory="No">
               <def:WhereClauseRef WhereClauseOID="WC.PP.PPTESTCD.TMAX.PPCAT.YJ001-C.PPSPEC.PLASMA"/>
            </ItemRef>
            <ItemRef ItemOID="IT.PP.PPORRES.PP.PPTESTCD.EQ.PP.PPCAT.EQ.PP.PPSPEC.EQ.cd004833c42c31b0315146af55902d41d13cb012"
                     OrderNumber="9"
                     Mandatory="No">
               <def:WhereClauseRef WhereClauseOID="WC.PP.PPTESTCD.VZFO.PPCAT.YJ001-C.PPSPEC.PLASMA"/>
            </ItemRef>
         </def:ValueListDef>
         <def:ValueListDef OID="VL.SUPPAE.QVAL">
            <ItemRef ItemOID="IT.SUPPAE.QVAL.SUPPAE.QNAM.EQ.ad4dac254a5e188fc3b22b293e2e85ff197886c8"
                     OrderNumber="1"
                     Mandatory="Yes">
               <def:WhereClauseRef WhereClauseOID="WC.SUPPAE.QNAM.AEDESC"/>
            </ItemRef>
            <ItemRef ItemOID="IT.SUPPAE.QVAL.SUPPAE.QNAM.EQ.0655bdab13a3451213bdf9e4ff64a09a8ebed0ff"
                     OrderNumber="2"
                     Mandatory="Yes">
               <def:WhereClauseRef WhereClauseOID="WC.SUPPAE.QNAM.AEDESC1"/>
            </ItemRef>
            <ItemRef ItemOID="IT.SUPPAE.QVAL.SUPPAE.QNAM.EQ.a439964e34f873aad667d81f0ec4d86f7dbea007"
                     OrderNumber="3"
                     Mandatory="Yes">
               <def:WhereClauseRef WhereClauseOID="WC.SUPPAE.QNAM.AEDESC2"/>
            </ItemRef>
            <ItemRef ItemOID="IT.SUPPAE.QVAL.SUPPAE.QNAM.EQ.7a6802657093ad75544ed240862c9c9729639c73"
                     OrderNumber="4"
                     Mandatory="Yes">
               <def:WhereClauseRef WhereClauseOID="WC.SUPPAE.QNAM.AEDIS"/>
            </ItemRef>
            <ItemRef ItemOID="IT.SUPPAE.QVAL.SUPPAE.QNAM.EQ.256418101d8b1c0ad2c53ed3af524a7aae2b0ab5"
                     OrderNumber="5"
                     Mandatory="Yes"
                     MethodOID="MT.AETRTEM">
               <def:WhereClauseRef WhereClauseOID="WC.SUPPAE.QNAM.AETRTEM"/>
            </ItemRef>
         </def:ValueListDef>
         <def:ValueListDef OID="VL.SUPPCM.QVAL">
            <ItemRef ItemOID="IT.SUPPCM.QVAL.SUPPCM.QNAM.EQ.b93f4552c2feb7546118a4f4ae2e6a99a9050ed9"
                     OrderNumber="1"
                     Mandatory="Yes">
               <def:WhereClauseRef WhereClauseOID="WC.SUPPCM.QNAM.CMATC1"/>
            </ItemRef>
            <ItemRef ItemOID="IT.SUPPCM.QVAL.SUPPCM.QNAM.EQ.0e84a5df38ac6c229dc54ef82f525f7e329d0510"
                     OrderNumber="2"
                     Mandatory="Yes">
               <def:WhereClauseRef WhereClauseOID="WC.SUPPCM.QNAM.CMATC1CD"/>
            </ItemRef>
            <ItemRef ItemOID="IT.SUPPCM.QVAL.SUPPCM.QNAM.EQ.f4fb1cad2e4008714a85d0d6bb03945f6275e2a0"
                     OrderNumber="3"
                     Mandatory="Yes">
               <def:WhereClauseRef WhereClauseOID="WC.SUPPCM.QNAM.CMATC2"/>
            </ItemRef>
            <ItemRef ItemOID="IT.SUPPCM.QVAL.SUPPCM.QNAM.EQ.0c9a277a8f79466a47f849bb0a41f35904c3092d"
                     OrderNumber="4"
                     Mandatory="Yes">
               <def:WhereClauseRef WhereClauseOID="WC.SUPPCM.QNAM.CMATC2CD"/>
            </ItemRef>
            <ItemRef ItemOID="IT.SUPPCM.QVAL.SUPPCM.QNAM.EQ.47ea2787bbbd233eecf46c2edcb2e32c86859e61"
                     OrderNumber="5"
                     Mandatory="Yes">
               <def:WhereClauseRef WhereClauseOID="WC.SUPPCM.QNAM.CMATC3"/>
            </ItemRef>
            <ItemRef ItemOID="IT.SUPPCM.QVAL.SUPPCM.QNAM.EQ.ec5af6af498beceee6bd7e17e8d218df5106b86f"
                     OrderNumber="6"
                     Mandatory="Yes">
               <def:WhereClauseRef WhereClauseOID="WC.SUPPCM.QNAM.CMATC3CD"/>
            </ItemRef>
            <ItemRef ItemOID="IT.SUPPCM.QVAL.SUPPCM.QNAM.EQ.690e83559263479948359ab415c7a8ccac327872"
                     OrderNumber="7"
                     Mandatory="Yes">
               <def:WhereClauseRef WhereClauseOID="WC.SUPPCM.QNAM.CMATC4"/>
            </ItemRef>
            <ItemRef ItemOID="IT.SUPPCM.QVAL.SUPPCM.QNAM.EQ.ca374d8df1710add75b358b2ecb137b1e22f5fa0"
                     OrderNumber="8"
                     Mandatory="Yes">
               <def:WhereClauseRef WhereClauseOID="WC.SUPPCM.QNAM.CMATC4CD"/>
            </ItemRef>
            <ItemRef ItemOID="IT.SUPPCM.QVAL.SUPPCM.QNAM.EQ.0b0260af9f976922d8903bc35ca0a561f4e4f13b"
                     OrderNumber="9"
                     Mandatory="Yes">
               <def:WhereClauseRef WhereClauseOID="WC.SUPPCM.QNAM.CMDECOD1"/>
            </ItemRef>
            <ItemRef ItemOID="IT.SUPPCM.QVAL.SUPPCM.QNAM.EQ.99723033eab1b40c94482c3920fc7ea3476c68b3"
                     OrderNumber="10"
                     Mandatory="Yes">
               <def:WhereClauseRef WhereClauseOID="WC.SUPPCM.QNAM.CMPTCD"/>
            </ItemRef>
         </def:ValueListDef>
         <def:ValueListDef OID="VL.SUPPDM.QVAL">
            <ItemRef ItemOID="IT.SUPPDM.QVAL.SUPPDM.QNAM.EQ.708adc2787d544c48aceb896025a89ab7799e3d3"
                     OrderNumber="1"
                     Mandatory="Yes">
               <def:WhereClauseRef WhereClauseOID="WC.SUPPDM.QNAM.ETHOTH"/>
            </ItemRef>
            <ItemRef ItemOID="IT.SUPPDM.QVAL.SUPPDM.QNAM.EQ.ea5a383494f81c4f464965d03bf916c41d68ced5"
                     OrderNumber="2"
                     Mandatory="Yes">
               <def:WhereClauseRef WhereClauseOID="WC.SUPPDM.QNAM.GROUP"/>
            </ItemRef>
            <ItemRef ItemOID="IT.SUPPDM.QVAL.SUPPDM.QNAM.EQ.9a1b59c67ad9eba4888228c352a6db047677c579"
                     OrderNumber="3"
                     Mandatory="Yes">
               <def:WhereClauseRef WhereClauseOID="WC.SUPPDM.QNAM.RANDDTC"/>
            </ItemRef>
            <ItemRef ItemOID="IT.SUPPDM.QVAL.SUPPDM.QNAM.EQ.f7e3e62dd9827eb48978fc1d726abbd91487256b"
                     OrderNumber="4"
                     Mandatory="Yes">
               <def:WhereClauseRef WhereClauseOID="WC.SUPPDM.QNAM.RANDNUM"/>
            </ItemRef>
            <ItemRef ItemOID="IT.SUPPDM.QVAL.SUPPDM.QNAM.EQ.7f11f8096c9fb202e9fcf0994c2f17406f4f40b9"
                     OrderNumber="5"
                     Mandatory="Yes">
               <def:WhereClauseRef WhereClauseOID="WC.SUPPDM.QNAM.RANDSTY"/>
            </ItemRef>
            <ItemRef ItemOID="IT.SUPPDM.QVAL.SUPPDM.QNAM.EQ.5e02e1c4219607e8585368355bf82efeeb834818"
                     OrderNumber="6"
                     Mandatory="Yes">
               <def:WhereClauseRef WhereClauseOID="WC.SUPPDM.QNAM.SUBSCNUM"/>
            </ItemRef>
         </def:ValueListDef>
         <def:ValueListDef OID="VL.SUPPDS.QVAL">
            <ItemRef ItemOID="IT.SUPPDS.QVAL.SUPPDS.QNAM.EQ.788aeb8219a12502e2f63a7992cd1a1fda8f7b67"
                     OrderNumber="1"
                     Mandatory="Yes">
               <def:WhereClauseRef WhereClauseOID="WC.SUPPDS.QNAM.DSOTHREA"/>
            </ItemRef>
         </def:ValueListDef>
         <def:ValueListDef OID="VL.SUPPDV.QVAL">
            <ItemRef ItemOID="IT.SUPPDV.QVAL.SUPPDV.QNAM.EQ.7449ea5bcf60ea76d7cacfd1290319aac2cb02d4"
                     OrderNumber="1"
                     Mandatory="Yes">
               <def:WhereClauseRef WhereClauseOID="WC.SUPPDV.QNAM.DVMETHD1"/>
            </ItemRef>
            <ItemRef ItemOID="IT.SUPPDV.QVAL.SUPPDV.QNAM.EQ.1a260c2e2824279cd145f2fa9fc31e75356b4698"
                     OrderNumber="2"
                     Mandatory="Yes">
               <def:WhereClauseRef WhereClauseOID="WC.SUPPDV.QNAM.DVMETHOD"/>
            </ItemRef>
            <ItemRef ItemOID="IT.SUPPDV.QVAL.SUPPDV.QNAM.EQ.542a1e27d5524862ed3220049b7a95a928421308"
                     OrderNumber="3"
                     Mandatory="Yes">
               <def:WhereClauseRef WhereClauseOID="WC.SUPPDV.QNAM.DVTERM1"/>
            </ItemRef>
            <ItemRef ItemOID="IT.SUPPDV.QVAL.SUPPDV.QNAM.EQ.0701ccc78440571f40d7c8bff582fb57b8ecc6e9"
                     OrderNumber="4"
                     Mandatory="Yes">
               <def:WhereClauseRef WhereClauseOID="WC.SUPPDV.QNAM.DVTERM2"/>
            </ItemRef>
         </def:ValueListDef>
         <def:ValueListDef OID="VL.SUPPEG.QVAL">
            <ItemRef ItemOID="IT.SUPPEG.QVAL.SUPPEG.QNAM.EQ.495559054261c77ce527a32a5d10ee316b2c1ae1"
                     OrderNumber="1"
                     Mandatory="Yes">
               <def:WhereClauseRef WhereClauseOID="WC.SUPPEG.QNAM.EGENDTC"/>
            </ItemRef>
            <ItemRef ItemOID="IT.SUPPEG.QVAL.SUPPEG.QNAM.EQ.598c9b2f76c8402f8ebfb62b65f9c73bea6eccd1"
                     OrderNumber="2"
                     Mandatory="Yes">
               <def:WhereClauseRef WhereClauseOID="WC.SUPPEG.QNAM.EGMK"/>
            </ItemRef>
            <ItemRef ItemOID="IT.SUPPEG.QVAL.SUPPEG.QNAM.EQ.4cefc83542f0c19516b106a32e798b664493177b"
                     OrderNumber="3"
                     Mandatory="Yes">
               <def:WhereClauseRef WhereClauseOID="WC.SUPPEG.QNAM.EGRES"/>
            </ItemRef>
            <ItemRef ItemOID="IT.SUPPEG.QVAL.SUPPEG.QNAM.EQ.4777e54718468334f52eb24f492933ea96be88b2"
                     OrderNumber="4"
                     Mandatory="Yes">
               <def:WhereClauseRef WhereClauseOID="WC.SUPPEG.QNAM.EGRES1"/>
            </ItemRef>
         </def:ValueListDef>
         <def:ValueListDef OID="VL.SUPPIS.QVAL">
            <ItemRef ItemOID="IT.SUPPIS.QVAL.SUPPIS.QNAM.EQ.eaef6be62eb224f5508b4177a49338b2e16fcdc3"
                     OrderNumber="1"
                     Mandatory="Yes">
               <def:WhereClauseRef WhereClauseOID="WC.SUPPIS.QNAM.ISCLSIG"/>
            </ItemRef>
            <ItemRef ItemOID="IT.SUPPIS.QVAL.SUPPIS.QNAM.EQ.c57fadb94d9fbe6e9c21d0523df5c713da3e6000"
                     OrderNumber="2"
                     Mandatory="Yes">
               <def:WhereClauseRef WhereClauseOID="WC.SUPPIS.QNAM.ISREA"/>
            </ItemRef>
            <ItemRef ItemOID="IT.SUPPIS.QVAL.SUPPIS.QNAM.EQ.7316452a63650688b2490e8a9df1af470f04d859"
                     OrderNumber="3"
                     Mandatory="Yes">
               <def:WhereClauseRef WhereClauseOID="WC.SUPPIS.QNAM.ISREAO"/>
            </ItemRef>
         </def:ValueListDef>
         <def:ValueListDef OID="VL.SUPPLB.QVAL">
            <ItemRef ItemOID="IT.SUPPLB.QVAL.SUPPLB.QNAM.EQ.f7d0c236ee72e4db83f34f726057858c2c6acd41"
                     OrderNumber="1"
                     Mandatory="Yes">
               <def:WhereClauseRef WhereClauseOID="WC.SUPPLB.QNAM.LBCLSIG"/>
            </ItemRef>
            <ItemRef ItemOID="IT.SUPPLB.QVAL.SUPPLB.QNAM.EQ.7ec1b4d8799b845819b3216244b909a6750dd30f"
                     OrderNumber="2"
                     Mandatory="Yes">
               <def:WhereClauseRef WhereClauseOID="WC.SUPPLB.QNAM.LBREA"/>
            </ItemRef>
            <ItemRef ItemOID="IT.SUPPLB.QVAL.SUPPLB.QNAM.EQ.7d0cb5e6c4aeeb89912bbfd7a9833bae7de14fe8"
                     OrderNumber="3"
                     Mandatory="Yes">
               <def:WhereClauseRef WhereClauseOID="WC.SUPPLB.QNAM.LBREAO"/>
            </ItemRef>
         </def:ValueListDef>
         <def:ValueListDef OID="VL.SUPPPC.QVAL">
            <ItemRef ItemOID="IT.SUPPPC.QVAL.SUPPPC.QNAM.EQ.a19afea6c58316ee86f4463793bb2f0bf19d6159"
                     OrderNumber="1"
                     Mandatory="Yes">
               <def:WhereClauseRef WhereClauseOID="WC.SUPPPC.QNAM.PCDESC"/>
            </ItemRef>
            <ItemRef ItemOID="IT.SUPPPC.QVAL.SUPPPC.QNAM.EQ.424f49244ee455b3d58659f11dcbfd13632e1aba"
                     OrderNumber="2"
                     Mandatory="Yes">
               <def:WhereClauseRef WhereClauseOID="WC.SUPPPC.QNAM.PCDESCO"/>
            </ItemRef>
            <ItemRef ItemOID="IT.SUPPPC.QVAL.SUPPPC.QNAM.EQ.73ba5efc0bdca9594056ff1cd7cec07e4c373303"
                     OrderNumber="3"
                     Mandatory="Yes">
               <def:WhereClauseRef WhereClauseOID="WC.SUPPPC.QNAM.PCYN"/>
            </ItemRef>
            <ItemRef ItemOID="IT.SUPPPC.QVAL.SUPPPC.QNAM.EQ.11eee407e7bc9d16b1f14c139c73e862a9b0d822"
                     OrderNumber="4"
                     Mandatory="Yes">
               <def:WhereClauseRef WhereClauseOID="WC.SUPPPC.QNAM.UCYN"/>
            </ItemRef>
         </def:ValueListDef>
         <def:ValueListDef OID="VL.SUPPPE.QVAL">
            <ItemRef ItemOID="IT.SUPPPE.QVAL.SUPPPE.QNAM.EQ.4def938451ec6563908d3f8bf11f7ce15829649d"
                     OrderNumber="1"
                     Mandatory="Yes">
               <def:WhereClauseRef WhereClauseOID="WC.SUPPPE.QNAM.PEDESC"/>
            </ItemRef>
         </def:ValueListDef>
         <def:ValueListDef OID="VL.SUPPVS.QVAL">
            <ItemRef ItemOID="IT.SUPPVS.QVAL.SUPPVS.QNAM.EQ.7df8a2dcf545e5853bd96154738b92ceb2b22720"
                     OrderNumber="1"
                     Mandatory="Yes">
               <def:WhereClauseRef WhereClauseOID="WC.SUPPVS.QNAM.VSCLSIG"/>
            </ItemRef>
            <ItemRef ItemOID="IT.SUPPVS.QVAL.SUPPVS.QNAM.EQ.26289770816fd2ab9741aca9a765a1a739cf95fa"
                     OrderNumber="2"
                     Mandatory="Yes">
               <def:WhereClauseRef WhereClauseOID="WC.SUPPVS.QNAM.VSENDTC"/>
            </ItemRef>
            <ItemRef ItemOID="IT.SUPPVS.QVAL.SUPPVS.QNAM.EQ.c0b98b135f990f168656259f2480de9ac838581e"
                     OrderNumber="3"
                     Mandatory="Yes">
               <def:WhereClauseRef WhereClauseOID="WC.SUPPVS.QNAM.VSREA"/>
            </ItemRef>
            <ItemRef ItemOID="IT.SUPPVS.QVAL.SUPPVS.QNAM.EQ.de6fb4f98d4658e2923023042890ece8ade3f363"
                     OrderNumber="4"
                     Mandatory="Yes">
               <def:WhereClauseRef WhereClauseOID="WC.SUPPVS.QNAM.VSREAO"/>
            </ItemRef>
         </def:ValueListDef>
         <def:ValueListDef OID="VL.VS.VSORRES">
            <ItemRef ItemOID="IT.VS.VSORRES.VS.VSTESTCD.EQ.aa26664f78ae6eefd43e406e445ed2495e7329ba"
                     OrderNumber="1"
                     Mandatory="No">
               <def:WhereClauseRef WhereClauseOID="WC.VS.VSTESTCD.BMI"/>
            </ItemRef>
            <ItemRef ItemOID="IT.VS.VSORRES.VS.VSTESTCD.EQ.76be3d2a48a316d363e360f9cf5e1c528354d59f"
                     OrderNumber="2"
                     Mandatory="No">
               <def:WhereClauseRef WhereClauseOID="WC.VS.VSTESTCD.DIABP"/>
            </ItemRef>
            <ItemRef ItemOID="IT.VS.VSORRES.VS.VSTESTCD.EQ.6ea6c65ca601a3b4f47d038364ac4b2c4078f7ea"
                     OrderNumber="3"
                     Mandatory="No">
               <def:WhereClauseRef WhereClauseOID="WC.VS.VSTESTCD.HEIGHT"/>
            </ItemRef>
            <ItemRef ItemOID="IT.VS.VSORRES.VS.VSTESTCD.EQ.d502de43b4a552f3870d1ac3ceeca0291fac9092"
                     OrderNumber="4"
                     Mandatory="No">
               <def:WhereClauseRef WhereClauseOID="WC.VS.VSTESTCD.PULSE"/>
            </ItemRef>
            <ItemRef ItemOID="IT.VS.VSORRES.VS.VSTESTCD.EQ.065fcdc4115d013af7be0340890a47f37fc2aac1"
                     OrderNumber="5"
                     Mandatory="No">
               <def:WhereClauseRef WhereClauseOID="WC.VS.VSTESTCD.RESP"/>
            </ItemRef>
            <ItemRef ItemOID="IT.VS.VSORRES.VS.VSTESTCD.EQ.91776888fbc2c2a0ca131150ab62b3c2016f52bd"
                     OrderNumber="6"
                     Mandatory="No">
               <def:WhereClauseRef WhereClauseOID="WC.VS.VSTESTCD.SYSBP"/>
            </ItemRef>
            <ItemRef ItemOID="IT.VS.VSORRES.VS.VSTESTCD.EQ.def1cac8277b55b62d6889e51352a77e3186587b"
                     OrderNumber="7"
                     Mandatory="No">
               <def:WhereClauseRef WhereClauseOID="WC.VS.VSTESTCD.TEMP"/>
            </ItemRef>
            <ItemRef ItemOID="IT.VS.VSORRES.VS.VSTESTCD.EQ.d9ce8f10bcdab56b0a48a10f5cc6fb6ed8d35088"
                     OrderNumber="8"
                     Mandatory="No">
               <def:WhereClauseRef WhereClauseOID="WC.VS.VSTESTCD.WEIGHT"/>
            </ItemRef>
         </def:ValueListDef>
         <def:WhereClauseDef OID="WC.DS.DSCAT.DISPOSITION EVENT">
            <RangeCheck SoftHard="Soft" def:ItemOID="IT.DS.DSCAT" Comparator="EQ">
               <CheckValue>DISPOSITION EVENT</CheckValue>
            </RangeCheck>
         </def:WhereClauseDef>
         <def:WhereClauseDef OID="WC.DS.DSCAT.PROTOCOL MILESTONE">
            <RangeCheck SoftHard="Soft" def:ItemOID="IT.DS.DSCAT" Comparator="EQ">
               <CheckValue>PROTOCOL MILESTONE</CheckValue>
            </RangeCheck>
         </def:WhereClauseDef>
         <def:WhereClauseDef OID="WC.EG.EGTESTCD.INTP.EGMETHOD.12 LEAD UNSPECIFIED">
            <RangeCheck SoftHard="Soft" def:ItemOID="IT.EG.EGTESTCD" Comparator="EQ">
               <CheckValue>INTP</CheckValue>
            </RangeCheck>
            <RangeCheck SoftHard="Soft" def:ItemOID="IT.EG.EGMETHOD" Comparator="EQ">
               <CheckValue>12 LEAD UNSPECIFIED</CheckValue>
            </RangeCheck>
         </def:WhereClauseDef>
         <def:WhereClauseDef OID="WC.EG.EGTESTCD.INTP.EGMETHOD.HOLTER CONTINUOUS ECG RECORDING">
            <RangeCheck SoftHard="Soft" def:ItemOID="IT.EG.EGTESTCD" Comparator="EQ">
               <CheckValue>INTP</CheckValue>
            </RangeCheck>
            <RangeCheck SoftHard="Soft" def:ItemOID="IT.EG.EGMETHOD" Comparator="EQ">
               <CheckValue>HOLTER CONTINUOUS ECG RECORDING</CheckValue>
            </RangeCheck>
         </def:WhereClauseDef>
         <def:WhereClauseDef OID="WC.FA.FATESTCD.ASSRES.FACAT.Administration site assessment">
            <RangeCheck SoftHard="Soft" def:ItemOID="IT.FA.FATESTCD" Comparator="EQ">
               <CheckValue>ASSRES</CheckValue>
            </RangeCheck>
            <RangeCheck SoftHard="Soft" def:ItemOID="IT.FA.FACAT" Comparator="EQ">
               <CheckValue>Administration site assessment</CheckValue>
            </RangeCheck>
         </def:WhereClauseDef>
         <def:WhereClauseDef OID="WC.FA.FATESTCD.OCCUR.FACAT.Blood Related History">
            <RangeCheck SoftHard="Soft" def:ItemOID="IT.FA.FATESTCD" Comparator="EQ">
               <CheckValue>OCCUR</CheckValue>
            </RangeCheck>
            <RangeCheck SoftHard="Soft" def:ItemOID="IT.FA.FACAT" Comparator="EQ">
               <CheckValue>Blood Related History</CheckValue>
            </RangeCheck>
         </def:WhereClauseDef>
         <def:WhereClauseDef OID="WC.FA.FATESTCD.OCCUR.FACAT.Nasopharynx and Ocular Assessments">
            <RangeCheck SoftHard="Soft" def:ItemOID="IT.FA.FATESTCD" Comparator="EQ">
               <CheckValue>OCCUR</CheckValue>
            </RangeCheck>
            <RangeCheck SoftHard="Soft" def:ItemOID="IT.FA.FACAT" Comparator="EQ">
               <CheckValue>Nasopharynx and Ocular Assessments</CheckValue>
            </RangeCheck>
         </def:WhereClauseDef>
         <def:WhereClauseDef OID="WC.FA.FATESTCD.OCCUR.FACAT.Vaccine Inoculation History">
            <RangeCheck SoftHard="Soft" def:ItemOID="IT.FA.FATESTCD" Comparator="EQ">
               <CheckValue>OCCUR</CheckValue>
            </RangeCheck>
            <RangeCheck SoftHard="Soft" def:ItemOID="IT.FA.FACAT" Comparator="EQ">
               <CheckValue>Vaccine Inoculation History</CheckValue>
            </RangeCheck>
         </def:WhereClauseDef>
         <def:WhereClauseDef OID="WC.IE.IETESTCD.EXCL04.IECAT.EXCLUSION">
            <RangeCheck SoftHard="Soft" def:ItemOID="IT.IE.IETESTCD" Comparator="EQ">
               <CheckValue>EXCL04</CheckValue>
            </RangeCheck>
            <RangeCheck SoftHard="Soft" def:ItemOID="IT.IE.IECAT" Comparator="EQ">
               <CheckValue>EXCLUSION</CheckValue>
            </RangeCheck>
         </def:WhereClauseDef>
         <def:WhereClauseDef OID="WC.IE.IETESTCD.EXCL06.IECAT.EXCLUSION">
            <RangeCheck SoftHard="Soft" def:ItemOID="IT.IE.IETESTCD" Comparator="EQ">
               <CheckValue>EXCL06</CheckValue>
            </RangeCheck>
            <RangeCheck SoftHard="Soft" def:ItemOID="IT.IE.IECAT" Comparator="EQ">
               <CheckValue>EXCLUSION</CheckValue>
            </RangeCheck>
         </def:WhereClauseDef>
         <def:WhereClauseDef OID="WC.IE.IETESTCD.EXCL07.IECAT.EXCLUSION">
            <RangeCheck SoftHard="Soft" def:ItemOID="IT.IE.IETESTCD" Comparator="EQ">
               <CheckValue>EXCL07</CheckValue>
            </RangeCheck>
            <RangeCheck SoftHard="Soft" def:ItemOID="IT.IE.IECAT" Comparator="EQ">
               <CheckValue>EXCLUSION</CheckValue>
            </RangeCheck>
         </def:WhereClauseDef>
         <def:WhereClauseDef OID="WC.IE.IETESTCD.EXCL08.IECAT.EXCLUSION">
            <RangeCheck SoftHard="Soft" def:ItemOID="IT.IE.IETESTCD" Comparator="EQ">
               <CheckValue>EXCL08</CheckValue>
            </RangeCheck>
            <RangeCheck SoftHard="Soft" def:ItemOID="IT.IE.IECAT" Comparator="EQ">
               <CheckValue>EXCLUSION</CheckValue>
            </RangeCheck>
         </def:WhereClauseDef>
         <def:WhereClauseDef OID="WC.IE.IETESTCD.EXCL09.IECAT.EXCLUSION">
            <RangeCheck SoftHard="Soft" def:ItemOID="IT.IE.IETESTCD" Comparator="EQ">
               <CheckValue>EXCL09</CheckValue>
            </RangeCheck>
            <RangeCheck SoftHard="Soft" def:ItemOID="IT.IE.IECAT" Comparator="EQ">
               <CheckValue>EXCLUSION</CheckValue>
            </RangeCheck>
         </def:WhereClauseDef>
         <def:WhereClauseDef OID="WC.IE.IETESTCD.EXCL12.IECAT.EXCLUSION">
            <RangeCheck SoftHard="Soft" def:ItemOID="IT.IE.IETESTCD" Comparator="EQ">
               <CheckValue>EXCL12</CheckValue>
            </RangeCheck>
            <RangeCheck SoftHard="Soft" def:ItemOID="IT.IE.IECAT" Comparator="EQ">
               <CheckValue>EXCLUSION</CheckValue>
            </RangeCheck>
         </def:WhereClauseDef>
         <def:WhereClauseDef OID="WC.IE.IETESTCD.EXCL14.IECAT.EXCLUSION">
            <RangeCheck SoftHard="Soft" def:ItemOID="IT.IE.IETESTCD" Comparator="EQ">
               <CheckValue>EXCL14</CheckValue>
            </RangeCheck>
            <RangeCheck SoftHard="Soft" def:ItemOID="IT.IE.IECAT" Comparator="EQ">
               <CheckValue>EXCLUSION</CheckValue>
            </RangeCheck>
         </def:WhereClauseDef>
         <def:WhereClauseDef OID="WC.IE.IETESTCD.EXCL15.IECAT.EXCLUSION">
            <RangeCheck SoftHard="Soft" def:ItemOID="IT.IE.IETESTCD" Comparator="EQ">
               <CheckValue>EXCL15</CheckValue>
            </RangeCheck>
            <RangeCheck SoftHard="Soft" def:ItemOID="IT.IE.IECAT" Comparator="EQ">
               <CheckValue>EXCLUSION</CheckValue>
            </RangeCheck>
         </def:WhereClauseDef>
         <def:WhereClauseDef OID="WC.IE.IETESTCD.EXCL19.IECAT.EXCLUSION">
            <RangeCheck SoftHard="Soft" def:ItemOID="IT.IE.IETESTCD" Comparator="EQ">
               <CheckValue>EXCL19</CheckValue>
            </RangeCheck>
            <RangeCheck SoftHard="Soft" def:ItemOID="IT.IE.IECAT" Comparator="EQ">
               <CheckValue>EXCLUSION</CheckValue>
            </RangeCheck>
         </def:WhereClauseDef>
         <def:WhereClauseDef OID="WC.IE.IETESTCD.EXCL22.IECAT.EXCLUSION">
            <RangeCheck SoftHard="Soft" def:ItemOID="IT.IE.IETESTCD" Comparator="EQ">
               <CheckValue>EXCL22</CheckValue>
            </RangeCheck>
            <RangeCheck SoftHard="Soft" def:ItemOID="IT.IE.IECAT" Comparator="EQ">
               <CheckValue>EXCLUSION</CheckValue>
            </RangeCheck>
         </def:WhereClauseDef>
         <def:WhereClauseDef OID="WC.IE.IETESTCD.EXCL23.IECAT.EXCLUSION">
            <RangeCheck SoftHard="Soft" def:ItemOID="IT.IE.IETESTCD" Comparator="EQ">
               <CheckValue>EXCL23</CheckValue>
            </RangeCheck>
            <RangeCheck SoftHard="Soft" def:ItemOID="IT.IE.IECAT" Comparator="EQ">
               <CheckValue>EXCLUSION</CheckValue>
            </RangeCheck>
         </def:WhereClauseDef>
         <def:WhereClauseDef OID="WC.IE.IETESTCD.INCL02.IECAT.INCLUSION">
            <RangeCheck SoftHard="Soft" def:ItemOID="IT.IE.IETESTCD" Comparator="EQ">
               <CheckValue>INCL02</CheckValue>
            </RangeCheck>
            <RangeCheck SoftHard="Soft" def:ItemOID="IT.IE.IECAT" Comparator="EQ">
               <CheckValue>INCLUSION</CheckValue>
            </RangeCheck>
         </def:WhereClauseDef>
         <def:WhereClauseDef OID="WC.IE.IETESTCD.INCL03.IECAT.INCLUSION">
            <RangeCheck SoftHard="Soft" def:ItemOID="IT.IE.IETESTCD" Comparator="EQ">
               <CheckValue>INCL03</CheckValue>
            </RangeCheck>
            <RangeCheck SoftHard="Soft" def:ItemOID="IT.IE.IECAT" Comparator="EQ">
               <CheckValue>INCLUSION</CheckValue>
            </RangeCheck>
         </def:WhereClauseDef>
         <def:WhereClauseDef OID="WC.IS.ISTESTCD.HBEAB.ISCAT.Serology">
            <RangeCheck SoftHard="Soft" def:ItemOID="IT.IS.ISTESTCD" Comparator="EQ">
               <CheckValue>HBEAB</CheckValue>
            </RangeCheck>
            <RangeCheck SoftHard="Soft" def:ItemOID="IT.IS.ISCAT" Comparator="EQ">
               <CheckValue>Serology</CheckValue>
            </RangeCheck>
         </def:WhereClauseDef>
         <def:WhereClauseDef OID="WC.IS.ISTESTCD.HBSAG.ISCAT.Serology">
            <RangeCheck SoftHard="Soft" def:ItemOID="IT.IS.ISTESTCD" Comparator="EQ">
               <CheckValue>HBSAG</CheckValue>
            </RangeCheck>
            <RangeCheck SoftHard="Soft" def:ItemOID="IT.IS.ISCAT" Comparator="EQ">
               <CheckValue>Serology</CheckValue>
            </RangeCheck>
         </def:WhereClauseDef>
         <def:WhereClauseDef OID="WC.IS.ISTESTCD.HCAB.ISCAT.Serology">
            <RangeCheck SoftHard="Soft" def:ItemOID="IT.IS.ISTESTCD" Comparator="EQ">
               <CheckValue>HCAB</CheckValue>
            </RangeCheck>
            <RangeCheck SoftHard="Soft" def:ItemOID="IT.IS.ISCAT" Comparator="EQ">
               <CheckValue>Serology</CheckValue>
            </RangeCheck>
         </def:WhereClauseDef>
         <def:WhereClauseDef OID="WC.IS.ISTESTCD.HIVAGAB.ISCAT.Serology">
            <RangeCheck SoftHard="Soft" def:ItemOID="IT.IS.ISTESTCD" Comparator="EQ">
               <CheckValue>HIVAGAB</CheckValue>
            </RangeCheck>
            <RangeCheck SoftHard="Soft" def:ItemOID="IT.IS.ISCAT" Comparator="EQ">
               <CheckValue>Serology</CheckValue>
            </RangeCheck>
         </def:WhereClauseDef>
         <def:WhereClauseDef OID="WC.IS.ISTESTCD.TPLAB.ISCAT.Serology">
            <RangeCheck SoftHard="Soft" def:ItemOID="IT.IS.ISTESTCD" Comparator="EQ">
               <CheckValue>TPLAB</CheckValue>
            </RangeCheck>
            <RangeCheck SoftHard="Soft" def:ItemOID="IT.IS.ISCAT" Comparator="EQ">
               <CheckValue>Serology</CheckValue>
            </RangeCheck>
         </def:WhereClauseDef>
         <def:WhereClauseDef OID="WC.LB.LBTESTCD.AHBDH.LBCAT.Serum Biochemistry.LBSCAT.Other unplanned examination">
            <RangeCheck SoftHard="Soft" def:ItemOID="IT.LB.LBTESTCD" Comparator="EQ">
               <CheckValue>AHBDH</CheckValue>
            </RangeCheck>
            <RangeCheck SoftHard="Soft" def:ItemOID="IT.LB.LBCAT" Comparator="EQ">
               <CheckValue>Serum Biochemistry</CheckValue>
            </RangeCheck>
            <RangeCheck SoftHard="Soft" def:ItemOID="IT.LB.LBSCAT" Comparator="EQ">
               <CheckValue>Other unplanned examination</CheckValue>
            </RangeCheck>
         </def:WhereClauseDef>
         <def:WhereClauseDef OID="WC.LB.LBTESTCD.ALB.LBCAT.Serum Biochemistry">
            <RangeCheck SoftHard="Soft" def:ItemOID="IT.LB.LBTESTCD" Comparator="EQ">
               <CheckValue>ALB</CheckValue>
            </RangeCheck>
            <RangeCheck SoftHard="Soft" def:ItemOID="IT.LB.LBCAT" Comparator="EQ">
               <CheckValue>Serum Biochemistry</CheckValue>
            </RangeCheck>
         </def:WhereClauseDef>
         <def:WhereClauseDef OID="WC.LB.LBTESTCD.ALP.LBCAT.Serum Biochemistry">
            <RangeCheck SoftHard="Soft" def:ItemOID="IT.LB.LBTESTCD" Comparator="EQ">
               <CheckValue>ALP</CheckValue>
            </RangeCheck>
            <RangeCheck SoftHard="Soft" def:ItemOID="IT.LB.LBCAT" Comparator="EQ">
               <CheckValue>Serum Biochemistry</CheckValue>
            </RangeCheck>
         </def:WhereClauseDef>
         <def:WhereClauseDef OID="WC.LB.LBTESTCD.ALT.LBCAT.Serum Biochemistry">
            <RangeCheck SoftHard="Soft" def:ItemOID="IT.LB.LBTESTCD" Comparator="EQ">
               <CheckValue>ALT</CheckValue>
            </RangeCheck>
            <RangeCheck SoftHard="Soft" def:ItemOID="IT.LB.LBCAT" Comparator="EQ">
               <CheckValue>Serum Biochemistry</CheckValue>
            </RangeCheck>
         </def:WhereClauseDef>
         <def:WhereClauseDef OID="WC.LB.LBTESTCD.AMYLASE.LBCAT.Serum Biochemistry.LBSCAT.Other unplanned examination">
            <RangeCheck SoftHard="Soft" def:ItemOID="IT.LB.LBTESTCD" Comparator="EQ">
               <CheckValue>AMYLASE</CheckValue>
            </RangeCheck>
            <RangeCheck SoftHard="Soft" def:ItemOID="IT.LB.LBCAT" Comparator="EQ">
               <CheckValue>Serum Biochemistry</CheckValue>
            </RangeCheck>
            <RangeCheck SoftHard="Soft" def:ItemOID="IT.LB.LBSCAT" Comparator="EQ">
               <CheckValue>Other unplanned examination</CheckValue>
            </RangeCheck>
         </def:WhereClauseDef>
         <def:WhereClauseDef OID="WC.LB.LBTESTCD.AMYLASE.LBCAT.Urine.LBSCAT.Other unplanned examination.LBSPEC.URINE">
            <RangeCheck SoftHard="Soft" def:ItemOID="IT.LB.LBTESTCD" Comparator="EQ">
               <CheckValue>AMYLASE</CheckValue>
            </RangeCheck>
            <RangeCheck SoftHard="Soft" def:ItemOID="IT.LB.LBCAT" Comparator="EQ">
               <CheckValue>Urine</CheckValue>
            </RangeCheck>
            <RangeCheck SoftHard="Soft" def:ItemOID="IT.LB.LBSCAT" Comparator="EQ">
               <CheckValue>Other unplanned examination</CheckValue>
            </RangeCheck>
            <RangeCheck SoftHard="Soft" def:ItemOID="IT.LB.LBSPEC" Comparator="EQ">
               <CheckValue>URINE</CheckValue>
            </RangeCheck>
         </def:WhereClauseDef>
         <def:WhereClauseDef OID="WC.LB.LBTESTCD.APTT.LBCAT.Coagulation">
            <RangeCheck SoftHard="Soft" def:ItemOID="IT.LB.LBTESTCD" Comparator="EQ">
               <CheckValue>APTT</CheckValue>
            </RangeCheck>
            <RangeCheck SoftHard="Soft" def:ItemOID="IT.LB.LBCAT" Comparator="EQ">
               <CheckValue>Coagulation</CheckValue>
            </RangeCheck>
         </def:WhereClauseDef>
         <def:WhereClauseDef OID="WC.LB.LBTESTCD.AST.LBCAT.Serum Biochemistry">
            <RangeCheck SoftHard="Soft" def:ItemOID="IT.LB.LBTESTCD" Comparator="EQ">
               <CheckValue>AST</CheckValue>
            </RangeCheck>
            <RangeCheck SoftHard="Soft" def:ItemOID="IT.LB.LBCAT" Comparator="EQ">
               <CheckValue>Serum Biochemistry</CheckValue>
            </RangeCheck>
         </def:WhereClauseDef>
         <def:WhereClauseDef OID="WC.LB.LBTESTCD.BACT.LBCAT.Urinary sediment.LBSCAT.Other unplanned examination.LBSPEC.URINE">
            <RangeCheck SoftHard="Soft" def:ItemOID="IT.LB.LBTESTCD" Comparator="EQ">
               <CheckValue>BACT</CheckValue>
            </RangeCheck>
            <RangeCheck SoftHard="Soft" def:ItemOID="IT.LB.LBCAT" Comparator="EQ">
               <CheckValue>Urinary sediment</CheckValue>
            </RangeCheck>
            <RangeCheck SoftHard="Soft" def:ItemOID="IT.LB.LBSCAT" Comparator="EQ">
               <CheckValue>Other unplanned examination</CheckValue>
            </RangeCheck>
            <RangeCheck SoftHard="Soft" def:ItemOID="IT.LB.LBSPEC" Comparator="EQ">
               <CheckValue>URINE</CheckValue>
            </RangeCheck>
         </def:WhereClauseDef>
         <def:WhereClauseDef OID="WC.LB.LBTESTCD.BASO.LBCAT.Hematology">
            <RangeCheck SoftHard="Soft" def:ItemOID="IT.LB.LBTESTCD" Comparator="EQ">
               <CheckValue>BASO</CheckValue>
            </RangeCheck>
            <RangeCheck SoftHard="Soft" def:ItemOID="IT.LB.LBCAT" Comparator="EQ">
               <CheckValue>Hematology</CheckValue>
            </RangeCheck>
         </def:WhereClauseDef>
         <def:WhereClauseDef OID="WC.LB.LBTESTCD.BASOLE.LBCAT.Hematology">
            <RangeCheck SoftHard="Soft" def:ItemOID="IT.LB.LBTESTCD" Comparator="EQ">
               <CheckValue>BASOLE</CheckValue>
            </RangeCheck>
            <RangeCheck SoftHard="Soft" def:ItemOID="IT.LB.LBCAT" Comparator="EQ">
               <CheckValue>Hematology</CheckValue>
            </RangeCheck>
         </def:WhereClauseDef>
         <def:WhereClauseDef OID="WC.LB.LBTESTCD.BILDIR.LBCAT.Serum Biochemistry">
            <RangeCheck SoftHard="Soft" def:ItemOID="IT.LB.LBTESTCD" Comparator="EQ">
               <CheckValue>BILDIR</CheckValue>
            </RangeCheck>
            <RangeCheck SoftHard="Soft" def:ItemOID="IT.LB.LBCAT" Comparator="EQ">
               <CheckValue>Serum Biochemistry</CheckValue>
            </RangeCheck>
         </def:WhereClauseDef>
         <def:WhereClauseDef OID="WC.LB.LBTESTCD.BILEAC.LBCAT.Serum Biochemistry.LBSCAT.Other unplanned examination">
            <RangeCheck SoftHard="Soft" def:ItemOID="IT.LB.LBTESTCD" Comparator="EQ">
               <CheckValue>BILEAC</CheckValue>
            </RangeCheck>
            <RangeCheck SoftHard="Soft" def:ItemOID="IT.LB.LBCAT" Comparator="EQ">
               <CheckValue>Serum Biochemistry</CheckValue>
            </RangeCheck>
            <RangeCheck SoftHard="Soft" def:ItemOID="IT.LB.LBSCAT" Comparator="EQ">
               <CheckValue>Other unplanned examination</CheckValue>
            </RangeCheck>
         </def:WhereClauseDef>
         <def:WhereClauseDef OID="WC.LB.LBTESTCD.BILI.LBCAT.Serum Biochemistry">
            <RangeCheck SoftHard="Soft" def:ItemOID="IT.LB.LBTESTCD" Comparator="EQ">
               <CheckValue>BILI</CheckValue>
            </RangeCheck>
            <RangeCheck SoftHard="Soft" def:ItemOID="IT.LB.LBCAT" Comparator="EQ">
               <CheckValue>Serum Biochemistry</CheckValue>
            </RangeCheck>
         </def:WhereClauseDef>
         <def:WhereClauseDef OID="WC.LB.LBTESTCD.BILI.LBCAT.Urinalysis.LBSPEC.URINE">
            <RangeCheck SoftHard="Soft" def:ItemOID="IT.LB.LBTESTCD" Comparator="EQ">
               <CheckValue>BILI</CheckValue>
            </RangeCheck>
            <RangeCheck SoftHard="Soft" def:ItemOID="IT.LB.LBCAT" Comparator="EQ">
               <CheckValue>Urinalysis</CheckValue>
            </RangeCheck>
            <RangeCheck SoftHard="Soft" def:ItemOID="IT.LB.LBSPEC" Comparator="EQ">
               <CheckValue>URINE</CheckValue>
            </RangeCheck>
         </def:WhereClauseDef>
         <def:WhereClauseDef OID="WC.LB.LBTESTCD.CA.LBCAT.Serum Biochemistry">
            <RangeCheck SoftHard="Soft" def:ItemOID="IT.LB.LBTESTCD" Comparator="EQ">
               <CheckValue>CA</CheckValue>
            </RangeCheck>
            <RangeCheck SoftHard="Soft" def:ItemOID="IT.LB.LBCAT" Comparator="EQ">
               <CheckValue>Serum Biochemistry</CheckValue>
            </RangeCheck>
         </def:WhereClauseDef>
         <def:WhereClauseDef OID="WC.LB.LBTESTCD.CANNAB.LBCAT.Urine Drugs of Abuse Test">
            <RangeCheck SoftHard="Soft" def:ItemOID="IT.LB.LBTESTCD" Comparator="EQ">
               <CheckValue>CANNAB</CheckValue>
            </RangeCheck>
            <RangeCheck SoftHard="Soft" def:ItemOID="IT.LB.LBCAT" Comparator="EQ">
               <CheckValue>Urine Drugs of Abuse Test</CheckValue>
            </RangeCheck>
         </def:WhereClauseDef>
         <def:WhereClauseDef OID="WC.LB.LBTESTCD.CK.LBCAT.Serum Biochemistry">
            <RangeCheck SoftHard="Soft" def:ItemOID="IT.LB.LBTESTCD" Comparator="EQ">
               <CheckValue>CK</CheckValue>
            </RangeCheck>
            <RangeCheck SoftHard="Soft" def:ItemOID="IT.LB.LBCAT" Comparator="EQ">
               <CheckValue>Serum Biochemistry</CheckValue>
            </RangeCheck>
         </def:WhereClauseDef>
         <def:WhereClauseDef OID="WC.LB.LBTESTCD.CK.LBCAT.Serum Biochemistry.LBSCAT.Other unplanned examination">
            <RangeCheck SoftHard="Soft" def:ItemOID="IT.LB.LBTESTCD" Comparator="EQ">
               <CheckValue>CK</CheckValue>
            </RangeCheck>
            <RangeCheck SoftHard="Soft" def:ItemOID="IT.LB.LBCAT" Comparator="EQ">
               <CheckValue>Serum Biochemistry</CheckValue>
            </RangeCheck>
            <RangeCheck SoftHard="Soft" def:ItemOID="IT.LB.LBSCAT" Comparator="EQ">
               <CheckValue>Other unplanned examination</CheckValue>
            </RangeCheck>
         </def:WhereClauseDef>
         <def:WhereClauseDef OID="WC.LB.LBTESTCD.CL.LBCAT.Serum Biochemistry">
            <RangeCheck SoftHard="Soft" def:ItemOID="IT.LB.LBTESTCD" Comparator="EQ">
               <CheckValue>CL</CheckValue>
            </RangeCheck>
            <RangeCheck SoftHard="Soft" def:ItemOID="IT.LB.LBCAT" Comparator="EQ">
               <CheckValue>Serum Biochemistry</CheckValue>
            </RangeCheck>
         </def:WhereClauseDef>
         <def:WhereClauseDef OID="WC.LB.LBTESTCD.CREAT.LBCAT.Serum Biochemistry">
            <RangeCheck SoftHard="Soft" def:ItemOID="IT.LB.LBTESTCD" Comparator="EQ">
               <CheckValue>CREAT</CheckValue>
            </RangeCheck>
            <RangeCheck SoftHard="Soft" def:ItemOID="IT.LB.LBCAT" Comparator="EQ">
               <CheckValue>Serum Biochemistry</CheckValue>
            </RangeCheck>
         </def:WhereClauseDef>
         <def:WhereClauseDef OID="WC.LB.LBTESTCD.EOS.LBCAT.Hematology">
            <RangeCheck SoftHard="Soft" def:ItemOID="IT.LB.LBTESTCD" Comparator="EQ">
               <CheckValue>EOS</CheckValue>
            </RangeCheck>
            <RangeCheck SoftHard="Soft" def:ItemOID="IT.LB.LBCAT" Comparator="EQ">
               <CheckValue>Hematology</CheckValue>
            </RangeCheck>
         </def:WhereClauseDef>
         <def:WhereClauseDef OID="WC.LB.LBTESTCD.EOSLE.LBCAT.Hematology">
            <RangeCheck SoftHard="Soft" def:ItemOID="IT.LB.LBTESTCD" Comparator="EQ">
               <CheckValue>EOSLE</CheckValue>
            </RangeCheck>
            <RangeCheck SoftHard="Soft" def:ItemOID="IT.LB.LBCAT" Comparator="EQ">
               <CheckValue>Hematology</CheckValue>
            </RangeCheck>
         </def:WhereClauseDef>
         <def:WhereClauseDef OID="WC.LB.LBTESTCD.ETHANOL.LBCAT.Breathalyzer Test">
            <RangeCheck SoftHard="Soft" def:ItemOID="IT.LB.LBTESTCD" Comparator="EQ">
               <CheckValue>ETHANOL</CheckValue>
            </RangeCheck>
            <RangeCheck SoftHard="Soft" def:ItemOID="IT.LB.LBCAT" Comparator="EQ">
               <CheckValue>Breathalyzer Test</CheckValue>
            </RangeCheck>
         </def:WhereClauseDef>
         <def:WhereClauseDef OID="WC.LB.LBTESTCD.FIBRINO.LBCAT.Coagulation">
            <RangeCheck SoftHard="Soft" def:ItemOID="IT.LB.LBTESTCD" Comparator="EQ">
               <CheckValue>FIBRINO</CheckValue>
            </RangeCheck>
            <RangeCheck SoftHard="Soft" def:ItemOID="IT.LB.LBCAT" Comparator="EQ">
               <CheckValue>Coagulation</CheckValue>
            </RangeCheck>
         </def:WhereClauseDef>
         <def:WhereClauseDef OID="WC.LB.LBTESTCD.GGT.LBCAT.Serum Biochemistry">
            <RangeCheck SoftHard="Soft" def:ItemOID="IT.LB.LBTESTCD" Comparator="EQ">
               <CheckValue>GGT</CheckValue>
            </RangeCheck>
            <RangeCheck SoftHard="Soft" def:ItemOID="IT.LB.LBCAT" Comparator="EQ">
               <CheckValue>Serum Biochemistry</CheckValue>
            </RangeCheck>
         </def:WhereClauseDef>
         <def:WhereClauseDef OID="WC.LB.LBTESTCD.GLOBUL.LBCAT.Serum Biochemistry">
            <RangeCheck SoftHard="Soft" def:ItemOID="IT.LB.LBTESTCD" Comparator="EQ">
               <CheckValue>GLOBUL</CheckValue>
            </RangeCheck>
            <RangeCheck SoftHard="Soft" def:ItemOID="IT.LB.LBCAT" Comparator="EQ">
               <CheckValue>Serum Biochemistry</CheckValue>
            </RangeCheck>
         </def:WhereClauseDef>
         <def:WhereClauseDef OID="WC.LB.LBTESTCD.GLUC.LBCAT.Urinalysis.LBSPEC.URINE">
            <RangeCheck SoftHard="Soft" def:ItemOID="IT.LB.LBTESTCD" Comparator="EQ">
               <CheckValue>GLUC</CheckValue>
            </RangeCheck>
            <RangeCheck SoftHard="Soft" def:ItemOID="IT.LB.LBCAT" Comparator="EQ">
               <CheckValue>Urinalysis</CheckValue>
            </RangeCheck>
            <RangeCheck SoftHard="Soft" def:ItemOID="IT.LB.LBSPEC" Comparator="EQ">
               <CheckValue>URINE</CheckValue>
            </RangeCheck>
         </def:WhereClauseDef>
         <def:WhereClauseDef OID="WC.LB.LBTESTCD.HCG.LBCAT.Pregnancy Test.LBSPEC.SERUM">
            <RangeCheck SoftHard="Soft" def:ItemOID="IT.LB.LBTESTCD" Comparator="EQ">
               <CheckValue>HCG</CheckValue>
            </RangeCheck>
            <RangeCheck SoftHard="Soft" def:ItemOID="IT.LB.LBCAT" Comparator="EQ">
               <CheckValue>Pregnancy Test</CheckValue>
            </RangeCheck>
            <RangeCheck SoftHard="Soft" def:ItemOID="IT.LB.LBSPEC" Comparator="EQ">
               <CheckValue>SERUM</CheckValue>
            </RangeCheck>
         </def:WhereClauseDef>
         <def:WhereClauseDef OID="WC.LB.LBTESTCD.HCG.LBCAT.Pregnancy Test.LBSPEC.URINE">
            <RangeCheck SoftHard="Soft" def:ItemOID="IT.LB.LBTESTCD" Comparator="EQ">
               <CheckValue>HCG</CheckValue>
            </RangeCheck>
            <RangeCheck SoftHard="Soft" def:ItemOID="IT.LB.LBCAT" Comparator="EQ">
               <CheckValue>Pregnancy Test</CheckValue>
            </RangeCheck>
            <RangeCheck SoftHard="Soft" def:ItemOID="IT.LB.LBSPEC" Comparator="EQ">
               <CheckValue>URINE</CheckValue>
            </RangeCheck>
         </def:WhereClauseDef>
         <def:WhereClauseDef OID="WC.LB.LBTESTCD.HCT.LBCAT.Hematology">
            <RangeCheck SoftHard="Soft" def:ItemOID="IT.LB.LBTESTCD" Comparator="EQ">
               <CheckValue>HCT</CheckValue>
            </RangeCheck>
            <RangeCheck SoftHard="Soft" def:ItemOID="IT.LB.LBCAT" Comparator="EQ">
               <CheckValue>Hematology</CheckValue>
            </RangeCheck>
         </def:WhereClauseDef>
         <def:WhereClauseDef OID="WC.LB.LBTESTCD.HGB.LBCAT.Hematology">
            <RangeCheck SoftHard="Soft" def:ItemOID="IT.LB.LBTESTCD" Comparator="EQ">
               <CheckValue>HGB</CheckValue>
            </RangeCheck>
            <RangeCheck SoftHard="Soft" def:ItemOID="IT.LB.LBCAT" Comparator="EQ">
               <CheckValue>Hematology</CheckValue>
            </RangeCheck>
         </def:WhereClauseDef>
         <def:WhereClauseDef OID="WC.LB.LBTESTCD.K.LBCAT.Serum Biochemistry">
            <RangeCheck SoftHard="Soft" def:ItemOID="IT.LB.LBTESTCD" Comparator="EQ">
               <CheckValue>K</CheckValue>
            </RangeCheck>
            <RangeCheck SoftHard="Soft" def:ItemOID="IT.LB.LBCAT" Comparator="EQ">
               <CheckValue>Serum Biochemistry</CheckValue>
            </RangeCheck>
         </def:WhereClauseDef>
         <def:WhereClauseDef OID="WC.LB.LBTESTCD.KETAMINE.LBCAT.Urine Drugs of Abuse Test">
            <RangeCheck SoftHard="Soft" def:ItemOID="IT.LB.LBTESTCD" Comparator="EQ">
               <CheckValue>KETAMINE</CheckValue>
            </RangeCheck>
            <RangeCheck SoftHard="Soft" def:ItemOID="IT.LB.LBCAT" Comparator="EQ">
               <CheckValue>Urine Drugs of Abuse Test</CheckValue>
            </RangeCheck>
         </def:WhereClauseDef>
         <def:WhereClauseDef OID="WC.LB.LBTESTCD.KETONES.LBCAT.Urinalysis.LBSPEC.URINE">
            <RangeCheck SoftHard="Soft" def:ItemOID="IT.LB.LBTESTCD" Comparator="EQ">
               <CheckValue>KETONES</CheckValue>
            </RangeCheck>
            <RangeCheck SoftHard="Soft" def:ItemOID="IT.LB.LBCAT" Comparator="EQ">
               <CheckValue>Urinalysis</CheckValue>
            </RangeCheck>
            <RangeCheck SoftHard="Soft" def:ItemOID="IT.LB.LBSPEC" Comparator="EQ">
               <CheckValue>URINE</CheckValue>
            </RangeCheck>
         </def:WhereClauseDef>
         <def:WhereClauseDef OID="WC.LB.LBTESTCD.LBALL.LBCAT.Pregnancy Test.LBSPEC.SERUM">
            <RangeCheck SoftHard="Soft" def:ItemOID="IT.LB.LBTESTCD" Comparator="EQ">
               <CheckValue>LBALL</CheckValue>
            </RangeCheck>
            <RangeCheck SoftHard="Soft" def:ItemOID="IT.LB.LBCAT" Comparator="EQ">
               <CheckValue>Pregnancy Test</CheckValue>
            </RangeCheck>
            <RangeCheck SoftHard="Soft" def:ItemOID="IT.LB.LBSPEC" Comparator="EQ">
               <CheckValue>SERUM</CheckValue>
            </RangeCheck>
         </def:WhereClauseDef>
         <def:WhereClauseDef OID="WC.LB.LBTESTCD.LBALL.LBCAT.Pregnancy Test.LBSPEC.URINE">
            <RangeCheck SoftHard="Soft" def:ItemOID="IT.LB.LBTESTCD" Comparator="EQ">
               <CheckValue>LBALL</CheckValue>
            </RangeCheck>
            <RangeCheck SoftHard="Soft" def:ItemOID="IT.LB.LBCAT" Comparator="EQ">
               <CheckValue>Pregnancy Test</CheckValue>
            </RangeCheck>
            <RangeCheck SoftHard="Soft" def:ItemOID="IT.LB.LBSPEC" Comparator="EQ">
               <CheckValue>URINE</CheckValue>
            </RangeCheck>
         </def:WhereClauseDef>
         <def:WhereClauseDef OID="WC.LB.LBTESTCD.LDH.LBCAT.Serum Biochemistry">
            <RangeCheck SoftHard="Soft" def:ItemOID="IT.LB.LBTESTCD" Comparator="EQ">
               <CheckValue>LDH</CheckValue>
            </RangeCheck>
            <RangeCheck SoftHard="Soft" def:ItemOID="IT.LB.LBCAT" Comparator="EQ">
               <CheckValue>Serum Biochemistry</CheckValue>
            </RangeCheck>
         </def:WhereClauseDef>
         <def:WhereClauseDef OID="WC.LB.LBTESTCD.LEUKASE.LBCAT.Urinalysis.LBSCAT.Other unplanned examination.LBSPEC.URINE">
            <RangeCheck SoftHard="Soft" def:ItemOID="IT.LB.LBTESTCD" Comparator="EQ">
               <CheckValue>LEUKASE</CheckValue>
            </RangeCheck>
            <RangeCheck SoftHard="Soft" def:ItemOID="IT.LB.LBCAT" Comparator="EQ">
               <CheckValue>Urinalysis</CheckValue>
            </RangeCheck>
            <RangeCheck SoftHard="Soft" def:ItemOID="IT.LB.LBSCAT" Comparator="EQ">
               <CheckValue>Other unplanned examination</CheckValue>
            </RangeCheck>
            <RangeCheck SoftHard="Soft" def:ItemOID="IT.LB.LBSPEC" Comparator="EQ">
               <CheckValue>URINE</CheckValue>
            </RangeCheck>
         </def:WhereClauseDef>
         <def:WhereClauseDef OID="WC.LB.LBTESTCD.LEUKASE.LBCAT.Urinary sediment.LBSCAT.Other unplanned examination.LBSPEC.URINE">
            <RangeCheck SoftHard="Soft" def:ItemOID="IT.LB.LBTESTCD" Comparator="EQ">
               <CheckValue>LEUKASE</CheckValue>
            </RangeCheck>
            <RangeCheck SoftHard="Soft" def:ItemOID="IT.LB.LBCAT" Comparator="EQ">
               <CheckValue>Urinary sediment</CheckValue>
            </RangeCheck>
            <RangeCheck SoftHard="Soft" def:ItemOID="IT.LB.LBSCAT" Comparator="EQ">
               <CheckValue>Other unplanned examination</CheckValue>
            </RangeCheck>
            <RangeCheck SoftHard="Soft" def:ItemOID="IT.LB.LBSPEC" Comparator="EQ">
               <CheckValue>URINE</CheckValue>
            </RangeCheck>
         </def:WhereClauseDef>
         <def:WhereClauseDef OID="WC.LB.LBTESTCD.LYM.LBCAT.Hematology">
            <RangeCheck SoftHard="Soft" def:ItemOID="IT.LB.LBTESTCD" Comparator="EQ">
               <CheckValue>LYM</CheckValue>
            </RangeCheck>
            <RangeCheck SoftHard="Soft" def:ItemOID="IT.LB.LBCAT" Comparator="EQ">
               <CheckValue>Hematology</CheckValue>
            </RangeCheck>
         </def:WhereClauseDef>
         <def:WhereClauseDef OID="WC.LB.LBTESTCD.LYMLE.LBCAT.Hematology">
            <RangeCheck SoftHard="Soft" def:ItemOID="IT.LB.LBTESTCD" Comparator="EQ">
               <CheckValue>LYMLE</CheckValue>
            </RangeCheck>
            <RangeCheck SoftHard="Soft" def:ItemOID="IT.LB.LBCAT" Comparator="EQ">
               <CheckValue>Hematology</CheckValue>
            </RangeCheck>
         </def:WhereClauseDef>
         <def:WhereClauseDef OID="WC.LB.LBTESTCD.MCH.LBCAT.Hematology">
            <RangeCheck SoftHard="Soft" def:ItemOID="IT.LB.LBTESTCD" Comparator="EQ">
               <CheckValue>MCH</CheckValue>
            </RangeCheck>
            <RangeCheck SoftHard="Soft" def:ItemOID="IT.LB.LBCAT" Comparator="EQ">
               <CheckValue>Hematology</CheckValue>
            </RangeCheck>
         </def:WhereClauseDef>
         <def:WhereClauseDef OID="WC.LB.LBTESTCD.MCHC.LBCAT.Hematology">
            <RangeCheck SoftHard="Soft" def:ItemOID="IT.LB.LBTESTCD" Comparator="EQ">
               <CheckValue>MCHC</CheckValue>
            </RangeCheck>
            <RangeCheck SoftHard="Soft" def:ItemOID="IT.LB.LBCAT" Comparator="EQ">
               <CheckValue>Hematology</CheckValue>
            </RangeCheck>
         </def:WhereClauseDef>
         <def:WhereClauseDef OID="WC.LB.LBTESTCD.MCV.LBCAT.Hematology">
            <RangeCheck SoftHard="Soft" def:ItemOID="IT.LB.LBTESTCD" Comparator="EQ">
               <CheckValue>MCV</CheckValue>
            </RangeCheck>
            <RangeCheck SoftHard="Soft" def:ItemOID="IT.LB.LBCAT" Comparator="EQ">
               <CheckValue>Hematology</CheckValue>
            </RangeCheck>
         </def:WhereClauseDef>
         <def:WhereClauseDef OID="WC.LB.LBTESTCD.MDMA.LBCAT.Urine Drugs of Abuse Test">
            <RangeCheck SoftHard="Soft" def:ItemOID="IT.LB.LBTESTCD" Comparator="EQ">
               <CheckValue>MDMA</CheckValue>
            </RangeCheck>
            <RangeCheck SoftHard="Soft" def:ItemOID="IT.LB.LBCAT" Comparator="EQ">
               <CheckValue>Urine Drugs of Abuse Test</CheckValue>
            </RangeCheck>
         </def:WhereClauseDef>
         <def:WhereClauseDef OID="WC.LB.LBTESTCD.METHAMPH.LBCAT.Urine Drugs of Abuse Test">
            <RangeCheck SoftHard="Soft" def:ItemOID="IT.LB.LBTESTCD" Comparator="EQ">
               <CheckValue>METHAMPH</CheckValue>
            </RangeCheck>
            <RangeCheck SoftHard="Soft" def:ItemOID="IT.LB.LBCAT" Comparator="EQ">
               <CheckValue>Urine Drugs of Abuse Test</CheckValue>
            </RangeCheck>
         </def:WhereClauseDef>
         <def:WhereClauseDef OID="WC.LB.LBTESTCD.MONO.LBCAT.Hematology">
            <RangeCheck SoftHard="Soft" def:ItemOID="IT.LB.LBTESTCD" Comparator="EQ">
               <CheckValue>MONO</CheckValue>
            </RangeCheck>
            <RangeCheck SoftHard="Soft" def:ItemOID="IT.LB.LBCAT" Comparator="EQ">
               <CheckValue>Hematology</CheckValue>
            </RangeCheck>
         </def:WhereClauseDef>
         <def:WhereClauseDef OID="WC.LB.LBTESTCD.MONOLE.LBCAT.Hematology">
            <RangeCheck SoftHard="Soft" def:ItemOID="IT.LB.LBTESTCD" Comparator="EQ">
               <CheckValue>MONOLE</CheckValue>
            </RangeCheck>
            <RangeCheck SoftHard="Soft" def:ItemOID="IT.LB.LBCAT" Comparator="EQ">
               <CheckValue>Hematology</CheckValue>
            </RangeCheck>
         </def:WhereClauseDef>
         <def:WhereClauseDef OID="WC.LB.LBTESTCD.MORPHINE.LBCAT.Urine Drugs of Abuse Test">
            <RangeCheck SoftHard="Soft" def:ItemOID="IT.LB.LBTESTCD" Comparator="EQ">
               <CheckValue>MORPHINE</CheckValue>
            </RangeCheck>
            <RangeCheck SoftHard="Soft" def:ItemOID="IT.LB.LBCAT" Comparator="EQ">
               <CheckValue>Urine Drugs of Abuse Test</CheckValue>
            </RangeCheck>
         </def:WhereClauseDef>
         <def:WhereClauseDef OID="WC.LB.LBTESTCD.NEUT.LBCAT.Hematology">
            <RangeCheck SoftHard="Soft" def:ItemOID="IT.LB.LBTESTCD" Comparator="EQ">
               <CheckValue>NEUT</CheckValue>
            </RangeCheck>
            <RangeCheck SoftHard="Soft" def:ItemOID="IT.LB.LBCAT" Comparator="EQ">
               <CheckValue>Hematology</CheckValue>
            </RangeCheck>
         </def:WhereClauseDef>
         <def:WhereClauseDef OID="WC.LB.LBTESTCD.NEUTLE.LBCAT.Hematology">
            <RangeCheck SoftHard="Soft" def:ItemOID="IT.LB.LBTESTCD" Comparator="EQ">
               <CheckValue>NEUTLE</CheckValue>
            </RangeCheck>
            <RangeCheck SoftHard="Soft" def:ItemOID="IT.LB.LBCAT" Comparator="EQ">
               <CheckValue>Hematology</CheckValue>
            </RangeCheck>
         </def:WhereClauseDef>
         <def:WhereClauseDef OID="WC.LB.LBTESTCD.NITRITE.LBCAT.Urinalysis.LBSPEC.URINE">
            <RangeCheck SoftHard="Soft" def:ItemOID="IT.LB.LBTESTCD" Comparator="EQ">
               <CheckValue>NITRITE</CheckValue>
            </RangeCheck>
            <RangeCheck SoftHard="Soft" def:ItemOID="IT.LB.LBCAT" Comparator="EQ">
               <CheckValue>Urinalysis</CheckValue>
            </RangeCheck>
            <RangeCheck SoftHard="Soft" def:ItemOID="IT.LB.LBSPEC" Comparator="EQ">
               <CheckValue>URINE</CheckValue>
            </RangeCheck>
         </def:WhereClauseDef>
         <def:WhereClauseDef OID="WC.LB.LBTESTCD.OCCBLD.LBCAT.Urinalysis.LBSCAT.Other unplanned examination.LBSPEC.URINE">
            <RangeCheck SoftHard="Soft" def:ItemOID="IT.LB.LBTESTCD" Comparator="EQ">
               <CheckValue>OCCBLD</CheckValue>
            </RangeCheck>
            <RangeCheck SoftHard="Soft" def:ItemOID="IT.LB.LBCAT" Comparator="EQ">
               <CheckValue>Urinalysis</CheckValue>
            </RangeCheck>
            <RangeCheck SoftHard="Soft" def:ItemOID="IT.LB.LBSCAT" Comparator="EQ">
               <CheckValue>Other unplanned examination</CheckValue>
            </RangeCheck>
            <RangeCheck SoftHard="Soft" def:ItemOID="IT.LB.LBSPEC" Comparator="EQ">
               <CheckValue>URINE</CheckValue>
            </RangeCheck>
         </def:WhereClauseDef>
         <def:WhereClauseDef OID="WC.LB.LBTESTCD.OCCBLD.LBCAT.Urinary sediment.LBSCAT.Other unplanned examination.LBSPEC.URINE">
            <RangeCheck SoftHard="Soft" def:ItemOID="IT.LB.LBTESTCD" Comparator="EQ">
               <CheckValue>OCCBLD</CheckValue>
            </RangeCheck>
            <RangeCheck SoftHard="Soft" def:ItemOID="IT.LB.LBCAT" Comparator="EQ">
               <CheckValue>Urinary sediment</CheckValue>
            </RangeCheck>
            <RangeCheck SoftHard="Soft" def:ItemOID="IT.LB.LBSCAT" Comparator="EQ">
               <CheckValue>Other unplanned examination</CheckValue>
            </RangeCheck>
            <RangeCheck SoftHard="Soft" def:ItemOID="IT.LB.LBSPEC" Comparator="EQ">
               <CheckValue>URINE</CheckValue>
            </RangeCheck>
         </def:WhereClauseDef>
         <def:WhereClauseDef OID="WC.LB.LBTESTCD.OTHERS.LBCAT.Urinalysis.LBSCAT.Other unplanned examination.LBSPEC.URINE">
            <RangeCheck SoftHard="Soft" def:ItemOID="IT.LB.LBTESTCD" Comparator="EQ">
               <CheckValue>OTHERS</CheckValue>
            </RangeCheck>
            <RangeCheck SoftHard="Soft" def:ItemOID="IT.LB.LBCAT" Comparator="EQ">
               <CheckValue>Urinalysis</CheckValue>
            </RangeCheck>
            <RangeCheck SoftHard="Soft" def:ItemOID="IT.LB.LBSCAT" Comparator="EQ">
               <CheckValue>Other unplanned examination</CheckValue>
            </RangeCheck>
            <RangeCheck SoftHard="Soft" def:ItemOID="IT.LB.LBSPEC" Comparator="EQ">
               <CheckValue>URINE</CheckValue>
            </RangeCheck>
         </def:WhereClauseDef>
         <def:WhereClauseDef OID="WC.LB.LBTESTCD.PH.LBCAT.Urinalysis.LBSPEC.URINE">
            <RangeCheck SoftHard="Soft" def:ItemOID="IT.LB.LBTESTCD" Comparator="EQ">
               <CheckValue>PH</CheckValue>
            </RangeCheck>
            <RangeCheck SoftHard="Soft" def:ItemOID="IT.LB.LBCAT" Comparator="EQ">
               <CheckValue>Urinalysis</CheckValue>
            </RangeCheck>
            <RangeCheck SoftHard="Soft" def:ItemOID="IT.LB.LBSPEC" Comparator="EQ">
               <CheckValue>URINE</CheckValue>
            </RangeCheck>
         </def:WhereClauseDef>
         <def:WhereClauseDef OID="WC.LB.LBTESTCD.PHOS.LBCAT.Serum Biochemistry">
            <RangeCheck SoftHard="Soft" def:ItemOID="IT.LB.LBTESTCD" Comparator="EQ">
               <CheckValue>PHOS</CheckValue>
            </RangeCheck>
            <RangeCheck SoftHard="Soft" def:ItemOID="IT.LB.LBCAT" Comparator="EQ">
               <CheckValue>Serum Biochemistry</CheckValue>
            </RangeCheck>
         </def:WhereClauseDef>
         <def:WhereClauseDef OID="WC.LB.LBTESTCD.PLAT.LBCAT.Hematology">
            <RangeCheck SoftHard="Soft" def:ItemOID="IT.LB.LBTESTCD" Comparator="EQ">
               <CheckValue>PLAT</CheckValue>
            </RangeCheck>
            <RangeCheck SoftHard="Soft" def:ItemOID="IT.LB.LBCAT" Comparator="EQ">
               <CheckValue>Hematology</CheckValue>
            </RangeCheck>
         </def:WhereClauseDef>
         <def:WhereClauseDef OID="WC.LB.LBTESTCD.PROT.LBCAT.Serum Biochemistry">
            <RangeCheck SoftHard="Soft" def:ItemOID="IT.LB.LBTESTCD" Comparator="EQ">
               <CheckValue>PROT</CheckValue>
            </RangeCheck>
            <RangeCheck SoftHard="Soft" def:ItemOID="IT.LB.LBCAT" Comparator="EQ">
               <CheckValue>Serum Biochemistry</CheckValue>
            </RangeCheck>
         </def:WhereClauseDef>
         <def:WhereClauseDef OID="WC.LB.LBTESTCD.PROT.LBCAT.Urinalysis.LBSPEC.URINE">
            <RangeCheck SoftHard="Soft" def:ItemOID="IT.LB.LBTESTCD" Comparator="EQ">
               <CheckValue>PROT</CheckValue>
            </RangeCheck>
            <RangeCheck SoftHard="Soft" def:ItemOID="IT.LB.LBCAT" Comparator="EQ">
               <CheckValue>Urinalysis</CheckValue>
            </RangeCheck>
            <RangeCheck SoftHard="Soft" def:ItemOID="IT.LB.LBSPEC" Comparator="EQ">
               <CheckValue>URINE</CheckValue>
            </RangeCheck>
         </def:WhereClauseDef>
         <def:WhereClauseDef OID="WC.LB.LBTESTCD.PT.LBCAT.Coagulation">
            <RangeCheck SoftHard="Soft" def:ItemOID="IT.LB.LBTESTCD" Comparator="EQ">
               <CheckValue>PT</CheckValue>
            </RangeCheck>
            <RangeCheck SoftHard="Soft" def:ItemOID="IT.LB.LBCAT" Comparator="EQ">
               <CheckValue>Coagulation</CheckValue>
            </RangeCheck>
         </def:WhereClauseDef>
         <def:WhereClauseDef OID="WC.LB.LBTESTCD.RBC.LBCAT.Hematology">
            <RangeCheck SoftHard="Soft" def:ItemOID="IT.LB.LBTESTCD" Comparator="EQ">
               <CheckValue>RBC</CheckValue>
            </RangeCheck>
            <RangeCheck SoftHard="Soft" def:ItemOID="IT.LB.LBCAT" Comparator="EQ">
               <CheckValue>Hematology</CheckValue>
            </RangeCheck>
         </def:WhereClauseDef>
         <def:WhereClauseDef OID="WC.LB.LBTESTCD.RBC.LBCAT.Urinalysis.LBSPEC.URINE">
            <RangeCheck SoftHard="Soft" def:ItemOID="IT.LB.LBTESTCD" Comparator="EQ">
               <CheckValue>RBC</CheckValue>
            </RangeCheck>
            <RangeCheck SoftHard="Soft" def:ItemOID="IT.LB.LBCAT" Comparator="EQ">
               <CheckValue>Urinalysis</CheckValue>
            </RangeCheck>
            <RangeCheck SoftHard="Soft" def:ItemOID="IT.LB.LBSPEC" Comparator="EQ">
               <CheckValue>URINE</CheckValue>
            </RangeCheck>
         </def:WhereClauseDef>
         <def:WhereClauseDef OID="WC.LB.LBTESTCD.RBC.LBCAT.Urinary sediment.LBSCAT.Other unplanned examination.LBSPEC.URINE">
            <RangeCheck SoftHard="Soft" def:ItemOID="IT.LB.LBTESTCD" Comparator="EQ">
               <CheckValue>RBC</CheckValue>
            </RangeCheck>
            <RangeCheck SoftHard="Soft" def:ItemOID="IT.LB.LBCAT" Comparator="EQ">
               <CheckValue>Urinary sediment</CheckValue>
            </RangeCheck>
            <RangeCheck SoftHard="Soft" def:ItemOID="IT.LB.LBSCAT" Comparator="EQ">
               <CheckValue>Other unplanned examination</CheckValue>
            </RangeCheck>
            <RangeCheck SoftHard="Soft" def:ItemOID="IT.LB.LBSPEC" Comparator="EQ">
               <CheckValue>URINE</CheckValue>
            </RangeCheck>
         </def:WhereClauseDef>
         <def:WhereClauseDef OID="WC.LB.LBTESTCD.RBCM.LBCAT.Urinary sediment.LBSCAT.Other unplanned examination.LBSPEC.URINE">
            <RangeCheck SoftHard="Soft" def:ItemOID="IT.LB.LBTESTCD" Comparator="EQ">
               <CheckValue>RBCM</CheckValue>
            </RangeCheck>
            <RangeCheck SoftHard="Soft" def:ItemOID="IT.LB.LBCAT" Comparator="EQ">
               <CheckValue>Urinary sediment</CheckValue>
            </RangeCheck>
            <RangeCheck SoftHard="Soft" def:ItemOID="IT.LB.LBSCAT" Comparator="EQ">
               <CheckValue>Other unplanned examination</CheckValue>
            </RangeCheck>
            <RangeCheck SoftHard="Soft" def:ItemOID="IT.LB.LBSPEC" Comparator="EQ">
               <CheckValue>URINE</CheckValue>
            </RangeCheck>
         </def:WhereClauseDef>
         <def:WhereClauseDef OID="WC.LB.LBTESTCD.SODIUM.LBCAT.Serum Biochemistry">
            <RangeCheck SoftHard="Soft" def:ItemOID="IT.LB.LBTESTCD" Comparator="EQ">
               <CheckValue>SODIUM</CheckValue>
            </RangeCheck>
            <RangeCheck SoftHard="Soft" def:ItemOID="IT.LB.LBCAT" Comparator="EQ">
               <CheckValue>Serum Biochemistry</CheckValue>
            </RangeCheck>
         </def:WhereClauseDef>
         <def:WhereClauseDef OID="WC.LB.LBTESTCD.SPGRAV.LBCAT.Urinalysis.LBSPEC.URINE">
            <RangeCheck SoftHard="Soft" def:ItemOID="IT.LB.LBTESTCD" Comparator="EQ">
               <CheckValue>SPGRAV</CheckValue>
            </RangeCheck>
            <RangeCheck SoftHard="Soft" def:ItemOID="IT.LB.LBCAT" Comparator="EQ">
               <CheckValue>Urinalysis</CheckValue>
            </RangeCheck>
            <RangeCheck SoftHard="Soft" def:ItemOID="IT.LB.LBSPEC" Comparator="EQ">
               <CheckValue>URINE</CheckValue>
            </RangeCheck>
         </def:WhereClauseDef>
         <def:WhereClauseDef OID="WC.LB.LBTESTCD.URATE.LBCAT.Serum Biochemistry.LBSCAT.Other unplanned examination">
            <RangeCheck SoftHard="Soft" def:ItemOID="IT.LB.LBTESTCD" Comparator="EQ">
               <CheckValue>URATE</CheckValue>
            </RangeCheck>
            <RangeCheck SoftHard="Soft" def:ItemOID="IT.LB.LBCAT" Comparator="EQ">
               <CheckValue>Serum Biochemistry</CheckValue>
            </RangeCheck>
            <RangeCheck SoftHard="Soft" def:ItemOID="IT.LB.LBSCAT" Comparator="EQ">
               <CheckValue>Other unplanned examination</CheckValue>
            </RangeCheck>
         </def:WhereClauseDef>
         <def:WhereClauseDef OID="WC.LB.LBTESTCD.UREA.LBCAT.Serum Biochemistry">
            <RangeCheck SoftHard="Soft" def:ItemOID="IT.LB.LBTESTCD" Comparator="EQ">
               <CheckValue>UREA</CheckValue>
            </RangeCheck>
            <RangeCheck SoftHard="Soft" def:ItemOID="IT.LB.LBCAT" Comparator="EQ">
               <CheckValue>Serum Biochemistry</CheckValue>
            </RangeCheck>
         </def:WhereClauseDef>
         <def:WhereClauseDef OID="WC.LB.LBTESTCD.UROBIL.LBCAT.Urinalysis.LBSPEC.URINE">
            <RangeCheck SoftHard="Soft" def:ItemOID="IT.LB.LBTESTCD" Comparator="EQ">
               <CheckValue>UROBIL</CheckValue>
            </RangeCheck>
            <RangeCheck SoftHard="Soft" def:ItemOID="IT.LB.LBCAT" Comparator="EQ">
               <CheckValue>Urinalysis</CheckValue>
            </RangeCheck>
            <RangeCheck SoftHard="Soft" def:ItemOID="IT.LB.LBSPEC" Comparator="EQ">
               <CheckValue>URINE</CheckValue>
            </RangeCheck>
         </def:WhereClauseDef>
         <def:WhereClauseDef OID="WC.LB.LBTESTCD.WBC.LBCAT.Hematology">
            <RangeCheck SoftHard="Soft" def:ItemOID="IT.LB.LBTESTCD" Comparator="EQ">
               <CheckValue>WBC</CheckValue>
            </RangeCheck>
            <RangeCheck SoftHard="Soft" def:ItemOID="IT.LB.LBCAT" Comparator="EQ">
               <CheckValue>Hematology</CheckValue>
            </RangeCheck>
         </def:WhereClauseDef>
         <def:WhereClauseDef OID="WC.LB.LBTESTCD.WBC.LBCAT.Urinalysis.LBSPEC.URINE">
            <RangeCheck SoftHard="Soft" def:ItemOID="IT.LB.LBTESTCD" Comparator="EQ">
               <CheckValue>WBC</CheckValue>
            </RangeCheck>
            <RangeCheck SoftHard="Soft" def:ItemOID="IT.LB.LBCAT" Comparator="EQ">
               <CheckValue>Urinalysis</CheckValue>
            </RangeCheck>
            <RangeCheck SoftHard="Soft" def:ItemOID="IT.LB.LBSPEC" Comparator="EQ">
               <CheckValue>URINE</CheckValue>
            </RangeCheck>
         </def:WhereClauseDef>
         <def:WhereClauseDef OID="WC.LB.LBTESTCD.WBC.LBCAT.Urinary sediment.LBSCAT.Other unplanned examination.LBSPEC.URINE">
            <RangeCheck SoftHard="Soft" def:ItemOID="IT.LB.LBTESTCD" Comparator="EQ">
               <CheckValue>WBC</CheckValue>
            </RangeCheck>
            <RangeCheck SoftHard="Soft" def:ItemOID="IT.LB.LBCAT" Comparator="EQ">
               <CheckValue>Urinary sediment</CheckValue>
            </RangeCheck>
            <RangeCheck SoftHard="Soft" def:ItemOID="IT.LB.LBSCAT" Comparator="EQ">
               <CheckValue>Other unplanned examination</CheckValue>
            </RangeCheck>
            <RangeCheck SoftHard="Soft" def:ItemOID="IT.LB.LBSPEC" Comparator="EQ">
               <CheckValue>URINE</CheckValue>
            </RangeCheck>
         </def:WhereClauseDef>
         <def:WhereClauseDef OID="WC.LB.LBTESTCD.WBCM.LBCAT.Urinary sediment.LBSCAT.Other unplanned examination.LBSPEC.URINE">
            <RangeCheck SoftHard="Soft" def:ItemOID="IT.LB.LBTESTCD" Comparator="EQ">
               <CheckValue>WBCM</CheckValue>
            </RangeCheck>
            <RangeCheck SoftHard="Soft" def:ItemOID="IT.LB.LBCAT" Comparator="EQ">
               <CheckValue>Urinary sediment</CheckValue>
            </RangeCheck>
            <RangeCheck SoftHard="Soft" def:ItemOID="IT.LB.LBSCAT" Comparator="EQ">
               <CheckValue>Other unplanned examination</CheckValue>
            </RangeCheck>
            <RangeCheck SoftHard="Soft" def:ItemOID="IT.LB.LBSPEC" Comparator="EQ">
               <CheckValue>URINE</CheckValue>
            </RangeCheck>
         </def:WhereClauseDef>
         <def:WhereClauseDef OID="WC.PC.PCTESTCD.GENACID.PCCAT.ANALYTE.PCSPEC.URINE">
            <RangeCheck SoftHard="Soft" def:ItemOID="IT.PC.PCTESTCD" Comparator="EQ">
               <CheckValue>GENACID</CheckValue>
            </RangeCheck>
            <RangeCheck SoftHard="Soft" def:ItemOID="IT.PC.PCCAT" Comparator="EQ">
               <CheckValue>ANALYTE</CheckValue>
            </RangeCheck>
            <RangeCheck SoftHard="Soft" def:ItemOID="IT.PC.PCSPEC" Comparator="EQ">
               <CheckValue>URINE</CheckValue>
            </RangeCheck>
         </def:WhereClauseDef>
         <def:WhereClauseDef OID="WC.PC.PCTESTCD.SALIACID.PCCAT.ANALYTE.PCSPEC.PLASMA">
            <RangeCheck SoftHard="Soft" def:ItemOID="IT.PC.PCTESTCD" Comparator="EQ">
               <CheckValue>SALIACID</CheckValue>
            </RangeCheck>
            <RangeCheck SoftHard="Soft" def:ItemOID="IT.PC.PCCAT" Comparator="EQ">
               <CheckValue>ANALYTE</CheckValue>
            </RangeCheck>
            <RangeCheck SoftHard="Soft" def:ItemOID="IT.PC.PCSPEC" Comparator="EQ">
               <CheckValue>PLASMA</CheckValue>
            </RangeCheck>
         </def:WhereClauseDef>
         <def:WhereClauseDef OID="WC.PC.PCTESTCD.SALIACID.PCCAT.ANALYTE.PCSPEC.URINE">
            <RangeCheck SoftHard="Soft" def:ItemOID="IT.PC.PCTESTCD" Comparator="EQ">
               <CheckValue>SALIACID</CheckValue>
            </RangeCheck>
            <RangeCheck SoftHard="Soft" def:ItemOID="IT.PC.PCCAT" Comparator="EQ">
               <CheckValue>ANALYTE</CheckValue>
            </RangeCheck>
            <RangeCheck SoftHard="Soft" def:ItemOID="IT.PC.PCSPEC" Comparator="EQ">
               <CheckValue>URINE</CheckValue>
            </RangeCheck>
         </def:WhereClauseDef>
         <def:WhereClauseDef OID="WC.PC.PCTESTCD.SALICY.PCCAT.ANALYTE.PCSPEC.URINE">
            <RangeCheck SoftHard="Soft" def:ItemOID="IT.PC.PCTESTCD" Comparator="EQ">
               <CheckValue>SALICY</CheckValue>
            </RangeCheck>
            <RangeCheck SoftHard="Soft" def:ItemOID="IT.PC.PCCAT" Comparator="EQ">
               <CheckValue>ANALYTE</CheckValue>
            </RangeCheck>
            <RangeCheck SoftHard="Soft" def:ItemOID="IT.PC.PCSPEC" Comparator="EQ">
               <CheckValue>URINE</CheckValue>
            </RangeCheck>
         </def:WhereClauseDef>
         <def:WhereClauseDef OID="WC.PC.PCTESTCD.VOLUME.PCCAT.SPECIMEN PROPERTY.PCSPEC.URINE">
            <RangeCheck SoftHard="Soft" def:ItemOID="IT.PC.PCTESTCD" Comparator="EQ">
               <CheckValue>VOLUME</CheckValue>
            </RangeCheck>
            <RangeCheck SoftHard="Soft" def:ItemOID="IT.PC.PCCAT" Comparator="EQ">
               <CheckValue>SPECIMEN PROPERTY</CheckValue>
            </RangeCheck>
            <RangeCheck SoftHard="Soft" def:ItemOID="IT.PC.PCSPEC" Comparator="EQ">
               <CheckValue>URINE</CheckValue>
            </RangeCheck>
         </def:WhereClauseDef>
         <def:WhereClauseDef OID="WC.PC.PCTESTCD.YJ001.PCCAT.ANALYTE.PCSPEC.PLASMA">
            <RangeCheck SoftHard="Soft" def:ItemOID="IT.PC.PCTESTCD" Comparator="EQ">
               <CheckValue>YJ001</CheckValue>
            </RangeCheck>
            <RangeCheck SoftHard="Soft" def:ItemOID="IT.PC.PCCAT" Comparator="EQ">
               <CheckValue>ANALYTE</CheckValue>
            </RangeCheck>
            <RangeCheck SoftHard="Soft" def:ItemOID="IT.PC.PCSPEC" Comparator="EQ">
               <CheckValue>PLASMA</CheckValue>
            </RangeCheck>
         </def:WhereClauseDef>
         <def:WhereClauseDef OID="WC.PC.PCTESTCD.YJ001A.PCCAT.ANALYTE.PCSPEC.PLASMA">
            <RangeCheck SoftHard="Soft" def:ItemOID="IT.PC.PCTESTCD" Comparator="EQ">
               <CheckValue>YJ001A</CheckValue>
            </RangeCheck>
            <RangeCheck SoftHard="Soft" def:ItemOID="IT.PC.PCCAT" Comparator="EQ">
               <CheckValue>ANALYTE</CheckValue>
            </RangeCheck>
            <RangeCheck SoftHard="Soft" def:ItemOID="IT.PC.PCSPEC" Comparator="EQ">
               <CheckValue>PLASMA</CheckValue>
            </RangeCheck>
         </def:WhereClauseDef>
         <def:WhereClauseDef OID="WC.PC.PCTESTCD.YJ001B.PCCAT.ANALYTE.PCSPEC.PLASMA">
            <RangeCheck SoftHard="Soft" def:ItemOID="IT.PC.PCTESTCD" Comparator="EQ">
               <CheckValue>YJ001B</CheckValue>
            </RangeCheck>
            <RangeCheck SoftHard="Soft" def:ItemOID="IT.PC.PCCAT" Comparator="EQ">
               <CheckValue>ANALYTE</CheckValue>
            </RangeCheck>
            <RangeCheck SoftHard="Soft" def:ItemOID="IT.PC.PCSPEC" Comparator="EQ">
               <CheckValue>PLASMA</CheckValue>
            </RangeCheck>
         </def:WhereClauseDef>
         <def:WhereClauseDef OID="WC.PC.PCTESTCD.YJ001C.PCCAT.ANALYTE.PCSPEC.PLASMA">
            <RangeCheck SoftHard="Soft" def:ItemOID="IT.PC.PCTESTCD" Comparator="EQ">
               <CheckValue>YJ001C</CheckValue>
            </RangeCheck>
            <RangeCheck SoftHard="Soft" def:ItemOID="IT.PC.PCCAT" Comparator="EQ">
               <CheckValue>ANALYTE</CheckValue>
            </RangeCheck>
            <RangeCheck SoftHard="Soft" def:ItemOID="IT.PC.PCSPEC" Comparator="EQ">
               <CheckValue>PLASMA</CheckValue>
            </RangeCheck>
         </def:WhereClauseDef>
         <def:WhereClauseDef OID="WC.PE.PETESTCD.ABD">
            <RangeCheck SoftHard="Soft" def:ItemOID="IT.PE.PETESTCD" Comparator="EQ">
               <CheckValue>ABD</CheckValue>
            </RangeCheck>
         </def:WhereClauseDef>
         <def:WhereClauseDef OID="WC.PE.PETESTCD.CHE">
            <RangeCheck SoftHard="Soft" def:ItemOID="IT.PE.PETESTCD" Comparator="EQ">
               <CheckValue>CHE</CheckValue>
            </RangeCheck>
         </def:WhereClauseDef>
         <def:WhereClauseDef OID="WC.PE.PETESTCD.HEAD">
            <RangeCheck SoftHard="Soft" def:ItemOID="IT.PE.PETESTCD" Comparator="EQ">
               <CheckValue>HEAD</CheckValue>
            </RangeCheck>
         </def:WhereClauseDef>
         <def:WhereClauseDef OID="WC.PE.PETESTCD.LYM">
            <RangeCheck SoftHard="Soft" def:ItemOID="IT.PE.PETESTCD" Comparator="EQ">
               <CheckValue>LYM</CheckValue>
            </RangeCheck>
         </def:WhereClauseDef>
         <def:WhereClauseDef OID="WC.PE.PETESTCD.MUS">
            <RangeCheck SoftHard="Soft" def:ItemOID="IT.PE.PETESTCD" Comparator="EQ">
               <CheckValue>MUS</CheckValue>
            </RangeCheck>
         </def:WhereClauseDef>
         <def:WhereClauseDef OID="WC.PE.PETESTCD.NECK">
            <RangeCheck SoftHard="Soft" def:ItemOID="IT.PE.PETESTCD" Comparator="EQ">
               <CheckValue>NECK</CheckValue>
            </RangeCheck>
         </def:WhereClauseDef>
         <def:WhereClauseDef OID="WC.PE.PETESTCD.SKI">
            <RangeCheck SoftHard="Soft" def:ItemOID="IT.PE.PETESTCD" Comparator="EQ">
               <CheckValue>SKI</CheckValue>
            </RangeCheck>
         </def:WhereClauseDef>
         <def:WhereClauseDef OID="WC.PE.PETESTCD.SPI">
            <RangeCheck SoftHard="Soft" def:ItemOID="IT.PE.PETESTCD" Comparator="EQ">
               <CheckValue>SPI</CheckValue>
            </RangeCheck>
         </def:WhereClauseDef>
         <def:WhereClauseDef OID="WC.PP.PPTESTCD.AUCIFO.PPCAT.YJ001-C.PPSPEC.PLASMA">
            <RangeCheck SoftHard="Soft" def:ItemOID="IT.PP.PPTESTCD" Comparator="EQ">
               <CheckValue>AUCIFO</CheckValue>
            </RangeCheck>
            <RangeCheck SoftHard="Soft" def:ItemOID="IT.PP.PPCAT" Comparator="EQ">
               <CheckValue>YJ001-C</CheckValue>
            </RangeCheck>
            <RangeCheck SoftHard="Soft" def:ItemOID="IT.PP.PPSPEC" Comparator="EQ">
               <CheckValue>PLASMA</CheckValue>
            </RangeCheck>
         </def:WhereClauseDef>
         <def:WhereClauseDef OID="WC.PP.PPTESTCD.AUCLST.PPCAT.YJ001-C.PPSPEC.PLASMA">
            <RangeCheck SoftHard="Soft" def:ItemOID="IT.PP.PPTESTCD" Comparator="EQ">
               <CheckValue>AUCLST</CheckValue>
            </RangeCheck>
            <RangeCheck SoftHard="Soft" def:ItemOID="IT.PP.PPCAT" Comparator="EQ">
               <CheckValue>YJ001-C</CheckValue>
            </RangeCheck>
            <RangeCheck SoftHard="Soft" def:ItemOID="IT.PP.PPSPEC" Comparator="EQ">
               <CheckValue>PLASMA</CheckValue>
            </RangeCheck>
         </def:WhereClauseDef>
         <def:WhereClauseDef OID="WC.PP.PPTESTCD.CLFO.PPCAT.YJ001-C.PPSPEC.PLASMA">
            <RangeCheck SoftHard="Soft" def:ItemOID="IT.PP.PPTESTCD" Comparator="EQ">
               <CheckValue>CLFO</CheckValue>
            </RangeCheck>
            <RangeCheck SoftHard="Soft" def:ItemOID="IT.PP.PPCAT" Comparator="EQ">
               <CheckValue>YJ001-C</CheckValue>
            </RangeCheck>
            <RangeCheck SoftHard="Soft" def:ItemOID="IT.PP.PPSPEC" Comparator="EQ">
               <CheckValue>PLASMA</CheckValue>
            </RangeCheck>
         </def:WhereClauseDef>
         <def:WhereClauseDef OID="WC.PP.PPTESTCD.CMAX.PPCAT.YJ001-C.PPSPEC.PLASMA">
            <RangeCheck SoftHard="Soft" def:ItemOID="IT.PP.PPTESTCD" Comparator="EQ">
               <CheckValue>CMAX</CheckValue>
            </RangeCheck>
            <RangeCheck SoftHard="Soft" def:ItemOID="IT.PP.PPCAT" Comparator="EQ">
               <CheckValue>YJ001-C</CheckValue>
            </RangeCheck>
            <RangeCheck SoftHard="Soft" def:ItemOID="IT.PP.PPSPEC" Comparator="EQ">
               <CheckValue>PLASMA</CheckValue>
            </RangeCheck>
         </def:WhereClauseDef>
         <def:WhereClauseDef OID="WC.PP.PPTESTCD.LAMZ.PPCAT.YJ001-C.PPSPEC.PLASMA">
            <RangeCheck SoftHard="Soft" def:ItemOID="IT.PP.PPTESTCD" Comparator="EQ">
               <CheckValue>LAMZ</CheckValue>
            </RangeCheck>
            <RangeCheck SoftHard="Soft" def:ItemOID="IT.PP.PPCAT" Comparator="EQ">
               <CheckValue>YJ001-C</CheckValue>
            </RangeCheck>
            <RangeCheck SoftHard="Soft" def:ItemOID="IT.PP.PPSPEC" Comparator="EQ">
               <CheckValue>PLASMA</CheckValue>
            </RangeCheck>
         </def:WhereClauseDef>
         <def:WhereClauseDef OID="WC.PP.PPTESTCD.LAMZHL.PPCAT.YJ001-C.PPSPEC.PLASMA">
            <RangeCheck SoftHard="Soft" def:ItemOID="IT.PP.PPTESTCD" Comparator="EQ">
               <CheckValue>LAMZHL</CheckValue>
            </RangeCheck>
            <RangeCheck SoftHard="Soft" def:ItemOID="IT.PP.PPCAT" Comparator="EQ">
               <CheckValue>YJ001-C</CheckValue>
            </RangeCheck>
            <RangeCheck SoftHard="Soft" def:ItemOID="IT.PP.PPSPEC" Comparator="EQ">
               <CheckValue>PLASMA</CheckValue>
            </RangeCheck>
         </def:WhereClauseDef>
         <def:WhereClauseDef OID="WC.PP.PPTESTCD.MRTIFO.PPCAT.YJ001-C.PPSPEC.PLASMA">
            <RangeCheck SoftHard="Soft" def:ItemOID="IT.PP.PPTESTCD" Comparator="EQ">
               <CheckValue>MRTIFO</CheckValue>
            </RangeCheck>
            <RangeCheck SoftHard="Soft" def:ItemOID="IT.PP.PPCAT" Comparator="EQ">
               <CheckValue>YJ001-C</CheckValue>
            </RangeCheck>
            <RangeCheck SoftHard="Soft" def:ItemOID="IT.PP.PPSPEC" Comparator="EQ">
               <CheckValue>PLASMA</CheckValue>
            </RangeCheck>
         </def:WhereClauseDef>
         <def:WhereClauseDef OID="WC.PP.PPTESTCD.TMAX.PPCAT.YJ001-C.PPSPEC.PLASMA">
            <RangeCheck SoftHard="Soft" def:ItemOID="IT.PP.PPTESTCD" Comparator="EQ">
               <CheckValue>TMAX</CheckValue>
            </RangeCheck>
            <RangeCheck SoftHard="Soft" def:ItemOID="IT.PP.PPCAT" Comparator="EQ">
               <CheckValue>YJ001-C</CheckValue>
            </RangeCheck>
            <RangeCheck SoftHard="Soft" def:ItemOID="IT.PP.PPSPEC" Comparator="EQ">
               <CheckValue>PLASMA</CheckValue>
            </RangeCheck>
         </def:WhereClauseDef>
         <def:WhereClauseDef OID="WC.PP.PPTESTCD.VZFO.PPCAT.YJ001-C.PPSPEC.PLASMA">
            <RangeCheck SoftHard="Soft" def:ItemOID="IT.PP.PPTESTCD" Comparator="EQ">
               <CheckValue>VZFO</CheckValue>
            </RangeCheck>
            <RangeCheck SoftHard="Soft" def:ItemOID="IT.PP.PPCAT" Comparator="EQ">
               <CheckValue>YJ001-C</CheckValue>
            </RangeCheck>
            <RangeCheck SoftHard="Soft" def:ItemOID="IT.PP.PPSPEC" Comparator="EQ">
               <CheckValue>PLASMA</CheckValue>
            </RangeCheck>
         </def:WhereClauseDef>
         <def:WhereClauseDef OID="WC.SUPPAE.QNAM.AEDESC">
            <RangeCheck SoftHard="Soft" def:ItemOID="IT.SUPPAE.QNAM" Comparator="EQ">
               <CheckValue>AEDESC</CheckValue>
            </RangeCheck>
         </def:WhereClauseDef>
         <def:WhereClauseDef OID="WC.SUPPAE.QNAM.AEDESC1">
            <RangeCheck SoftHard="Soft" def:ItemOID="IT.SUPPAE.QNAM" Comparator="EQ">
               <CheckValue>AEDESC1</CheckValue>
            </RangeCheck>
         </def:WhereClauseDef>
         <def:WhereClauseDef OID="WC.SUPPAE.QNAM.AEDESC2">
            <RangeCheck SoftHard="Soft" def:ItemOID="IT.SUPPAE.QNAM" Comparator="EQ">
               <CheckValue>AEDESC2</CheckValue>
            </RangeCheck>
         </def:WhereClauseDef>
         <def:WhereClauseDef OID="WC.SUPPAE.QNAM.AEDIS">
            <RangeCheck SoftHard="Soft" def:ItemOID="IT.SUPPAE.QNAM" Comparator="EQ">
               <CheckValue>AEDIS</CheckValue>
            </RangeCheck>
         </def:WhereClauseDef>
         <def:WhereClauseDef OID="WC.SUPPAE.QNAM.AETRTEM">
            <RangeCheck SoftHard="Soft" def:ItemOID="IT.SUPPAE.QNAM" Comparator="EQ">
               <CheckValue>AETRTEM</CheckValue>
            </RangeCheck>
         </def:WhereClauseDef>
         <def:WhereClauseDef OID="WC.SUPPCM.QNAM.CMATC1">
            <RangeCheck SoftHard="Soft" def:ItemOID="IT.SUPPCM.QNAM" Comparator="EQ">
               <CheckValue>CMATC1</CheckValue>
            </RangeCheck>
         </def:WhereClauseDef>
         <def:WhereClauseDef OID="WC.SUPPCM.QNAM.CMATC1CD">
            <RangeCheck SoftHard="Soft" def:ItemOID="IT.SUPPCM.QNAM" Comparator="EQ">
               <CheckValue>CMATC1CD</CheckValue>
            </RangeCheck>
         </def:WhereClauseDef>
         <def:WhereClauseDef OID="WC.SUPPCM.QNAM.CMATC2">
            <RangeCheck SoftHard="Soft" def:ItemOID="IT.SUPPCM.QNAM" Comparator="EQ">
               <CheckValue>CMATC2</CheckValue>
            </RangeCheck>
         </def:WhereClauseDef>
         <def:WhereClauseDef OID="WC.SUPPCM.QNAM.CMATC2CD">
            <RangeCheck SoftHard="Soft" def:ItemOID="IT.SUPPCM.QNAM" Comparator="EQ">
               <CheckValue>CMATC2CD</CheckValue>
            </RangeCheck>
         </def:WhereClauseDef>
         <def:WhereClauseDef OID="WC.SUPPCM.QNAM.CMATC3">
            <RangeCheck SoftHard="Soft" def:ItemOID="IT.SUPPCM.QNAM" Comparator="EQ">
               <CheckValue>CMATC3</CheckValue>
            </RangeCheck>
         </def:WhereClauseDef>
         <def:WhereClauseDef OID="WC.SUPPCM.QNAM.CMATC3CD">
            <RangeCheck SoftHard="Soft" def:ItemOID="IT.SUPPCM.QNAM" Comparator="EQ">
               <CheckValue>CMATC3CD</CheckValue>
            </RangeCheck>
         </def:WhereClauseDef>
         <def:WhereClauseDef OID="WC.SUPPCM.QNAM.CMATC4">
            <RangeCheck SoftHard="Soft" def:ItemOID="IT.SUPPCM.QNAM" Comparator="EQ">
               <CheckValue>CMATC4</CheckValue>
            </RangeCheck>
         </def:WhereClauseDef>
         <def:WhereClauseDef OID="WC.SUPPCM.QNAM.CMATC4CD">
            <RangeCheck SoftHard="Soft" def:ItemOID="IT.SUPPCM.QNAM" Comparator="EQ">
               <CheckValue>CMATC4CD</CheckValue>
            </RangeCheck>
         </def:WhereClauseDef>
         <def:WhereClauseDef OID="WC.SUPPCM.QNAM.CMDECOD1">
            <RangeCheck SoftHard="Soft" def:ItemOID="IT.SUPPCM.QNAM" Comparator="EQ">
               <CheckValue>CMDECOD1</CheckValue>
            </RangeCheck>
         </def:WhereClauseDef>
         <def:WhereClauseDef OID="WC.SUPPCM.QNAM.CMPTCD">
            <RangeCheck SoftHard="Soft" def:ItemOID="IT.SUPPCM.QNAM" Comparator="EQ">
               <CheckValue>CMPTCD</CheckValue>
            </RangeCheck>
         </def:WhereClauseDef>
         <def:WhereClauseDef OID="WC.SUPPDM.QNAM.ETHOTH">
            <RangeCheck SoftHard="Soft" def:ItemOID="IT.SUPPDM.QNAM" Comparator="EQ">
               <CheckValue>ETHOTH</CheckValue>
            </RangeCheck>
         </def:WhereClauseDef>
         <def:WhereClauseDef OID="WC.SUPPDM.QNAM.GROUP">
            <RangeCheck SoftHard="Soft" def:ItemOID="IT.SUPPDM.QNAM" Comparator="EQ">
               <CheckValue>GROUP</CheckValue>
            </RangeCheck>
         </def:WhereClauseDef>
         <def:WhereClauseDef OID="WC.SUPPDM.QNAM.RANDDTC">
            <RangeCheck SoftHard="Soft" def:ItemOID="IT.SUPPDM.QNAM" Comparator="EQ">
               <CheckValue>RANDDTC</CheckValue>
            </RangeCheck>
         </def:WhereClauseDef>
         <def:WhereClauseDef OID="WC.SUPPDM.QNAM.RANDNUM">
            <RangeCheck SoftHard="Soft" def:ItemOID="IT.SUPPDM.QNAM" Comparator="EQ">
               <CheckValue>RANDNUM</CheckValue>
            </RangeCheck>
         </def:WhereClauseDef>
         <def:WhereClauseDef OID="WC.SUPPDM.QNAM.RANDSTY">
            <RangeCheck SoftHard="Soft" def:ItemOID="IT.SUPPDM.QNAM" Comparator="EQ">
               <CheckValue>RANDSTY</CheckValue>
            </RangeCheck>
         </def:WhereClauseDef>
         <def:WhereClauseDef OID="WC.SUPPDM.QNAM.SUBSCNUM">
            <RangeCheck SoftHard="Soft" def:ItemOID="IT.SUPPDM.QNAM" Comparator="EQ">
               <CheckValue>SUBSCNUM</CheckValue>
            </RangeCheck>
         </def:WhereClauseDef>
         <def:WhereClauseDef OID="WC.SUPPDS.QNAM.DSOTHREA">
            <RangeCheck SoftHard="Soft" def:ItemOID="IT.SUPPDS.QNAM" Comparator="EQ">
               <CheckValue>DSOTHREA</CheckValue>
            </RangeCheck>
         </def:WhereClauseDef>
         <def:WhereClauseDef OID="WC.SUPPDV.QNAM.DVMETHD1">
            <RangeCheck SoftHard="Soft" def:ItemOID="IT.SUPPDV.QNAM" Comparator="EQ">
               <CheckValue>DVMETHD1</CheckValue>
            </RangeCheck>
         </def:WhereClauseDef>
         <def:WhereClauseDef OID="WC.SUPPDV.QNAM.DVMETHOD">
            <RangeCheck SoftHard="Soft" def:ItemOID="IT.SUPPDV.QNAM" Comparator="EQ">
               <CheckValue>DVMETHOD</CheckValue>
            </RangeCheck>
         </def:WhereClauseDef>
         <def:WhereClauseDef OID="WC.SUPPDV.QNAM.DVTERM1">
            <RangeCheck SoftHard="Soft" def:ItemOID="IT.SUPPDV.QNAM" Comparator="EQ">
               <CheckValue>DVTERM1</CheckValue>
            </RangeCheck>
         </def:WhereClauseDef>
         <def:WhereClauseDef OID="WC.SUPPDV.QNAM.DVTERM2">
            <RangeCheck SoftHard="Soft" def:ItemOID="IT.SUPPDV.QNAM" Comparator="EQ">
               <CheckValue>DVTERM2</CheckValue>
            </RangeCheck>
         </def:WhereClauseDef>
         <def:WhereClauseDef OID="WC.SUPPEG.QNAM.EGENDTC">
            <RangeCheck SoftHard="Soft" def:ItemOID="IT.SUPPEG.QNAM" Comparator="EQ">
               <CheckValue>EGENDTC</CheckValue>
            </RangeCheck>
         </def:WhereClauseDef>
         <def:WhereClauseDef OID="WC.SUPPEG.QNAM.EGMK">
            <RangeCheck SoftHard="Soft" def:ItemOID="IT.SUPPEG.QNAM" Comparator="EQ">
               <CheckValue>EGMK</CheckValue>
            </RangeCheck>
         </def:WhereClauseDef>
         <def:WhereClauseDef OID="WC.SUPPEG.QNAM.EGRES">
            <RangeCheck SoftHard="Soft" def:ItemOID="IT.SUPPEG.QNAM" Comparator="EQ">
               <CheckValue>EGRES</CheckValue>
            </RangeCheck>
         </def:WhereClauseDef>
         <def:WhereClauseDef OID="WC.SUPPEG.QNAM.EGRES1">
            <RangeCheck SoftHard="Soft" def:ItemOID="IT.SUPPEG.QNAM" Comparator="EQ">
               <CheckValue>EGRES1</CheckValue>
            </RangeCheck>
         </def:WhereClauseDef>
         <def:WhereClauseDef OID="WC.SUPPIS.QNAM.ISCLSIG">
            <RangeCheck SoftHard="Soft" def:ItemOID="IT.SUPPIS.QNAM" Comparator="EQ">
               <CheckValue>ISCLSIG</CheckValue>
            </RangeCheck>
         </def:WhereClauseDef>
         <def:WhereClauseDef OID="WC.SUPPIS.QNAM.ISREA">
            <RangeCheck SoftHard="Soft" def:ItemOID="IT.SUPPIS.QNAM" Comparator="EQ">
               <CheckValue>ISREA</CheckValue>
            </RangeCheck>
         </def:WhereClauseDef>
         <def:WhereClauseDef OID="WC.SUPPIS.QNAM.ISREAO">
            <RangeCheck SoftHard="Soft" def:ItemOID="IT.SUPPIS.QNAM" Comparator="EQ">
               <CheckValue>ISREAO</CheckValue>
            </RangeCheck>
         </def:WhereClauseDef>
         <def:WhereClauseDef OID="WC.SUPPLB.QNAM.LBCLSIG">
            <RangeCheck SoftHard="Soft" def:ItemOID="IT.SUPPLB.QNAM" Comparator="EQ">
               <CheckValue>LBCLSIG</CheckValue>
            </RangeCheck>
         </def:WhereClauseDef>
         <def:WhereClauseDef OID="WC.SUPPLB.QNAM.LBREA">
            <RangeCheck SoftHard="Soft" def:ItemOID="IT.SUPPLB.QNAM" Comparator="EQ">
               <CheckValue>LBREA</CheckValue>
            </RangeCheck>
         </def:WhereClauseDef>
         <def:WhereClauseDef OID="WC.SUPPLB.QNAM.LBREAO">
            <RangeCheck SoftHard="Soft" def:ItemOID="IT.SUPPLB.QNAM" Comparator="EQ">
               <CheckValue>LBREAO</CheckValue>
            </RangeCheck>
         </def:WhereClauseDef>
         <def:WhereClauseDef OID="WC.SUPPPC.QNAM.PCDESC">
            <RangeCheck SoftHard="Soft" def:ItemOID="IT.SUPPPC.QNAM" Comparator="EQ">
               <CheckValue>PCDESC</CheckValue>
            </RangeCheck>
         </def:WhereClauseDef>
         <def:WhereClauseDef OID="WC.SUPPPC.QNAM.PCDESCO">
            <RangeCheck SoftHard="Soft" def:ItemOID="IT.SUPPPC.QNAM" Comparator="EQ">
               <CheckValue>PCDESCO</CheckValue>
            </RangeCheck>
         </def:WhereClauseDef>
         <def:WhereClauseDef OID="WC.SUPPPC.QNAM.PCYN">
            <RangeCheck SoftHard="Soft" def:ItemOID="IT.SUPPPC.QNAM" Comparator="EQ">
               <CheckValue>PCYN</CheckValue>
            </RangeCheck>
         </def:WhereClauseDef>
         <def:WhereClauseDef OID="WC.SUPPPC.QNAM.UCYN">
            <RangeCheck SoftHard="Soft" def:ItemOID="IT.SUPPPC.QNAM" Comparator="EQ">
               <CheckValue>UCYN</CheckValue>
            </RangeCheck>
         </def:WhereClauseDef>
         <def:WhereClauseDef OID="WC.SUPPPE.QNAM.PEDESC">
            <RangeCheck SoftHard="Soft" def:ItemOID="IT.SUPPPE.QNAM" Comparator="EQ">
               <CheckValue>PEDESC</CheckValue>
            </RangeCheck>
         </def:WhereClauseDef>
         <def:WhereClauseDef OID="WC.SUPPVS.QNAM.VSCLSIG">
            <RangeCheck SoftHard="Soft" def:ItemOID="IT.SUPPVS.QNAM" Comparator="EQ">
               <CheckValue>VSCLSIG</CheckValue>
            </RangeCheck>
         </def:WhereClauseDef>
         <def:WhereClauseDef OID="WC.SUPPVS.QNAM.VSENDTC">
            <RangeCheck SoftHard="Soft" def:ItemOID="IT.SUPPVS.QNAM" Comparator="EQ">
               <CheckValue>VSENDTC</CheckValue>
            </RangeCheck>
         </def:WhereClauseDef>
         <def:WhereClauseDef OID="WC.SUPPVS.QNAM.VSREA">
            <RangeCheck SoftHard="Soft" def:ItemOID="IT.SUPPVS.QNAM" Comparator="EQ">
               <CheckValue>VSREA</CheckValue>
            </RangeCheck>
         </def:WhereClauseDef>
         <def:WhereClauseDef OID="WC.SUPPVS.QNAM.VSREAO">
            <RangeCheck SoftHard="Soft" def:ItemOID="IT.SUPPVS.QNAM" Comparator="EQ">
               <CheckValue>VSREAO</CheckValue>
            </RangeCheck>
         </def:WhereClauseDef>
         <def:WhereClauseDef OID="WC.VS.VSTESTCD.BMI">
            <RangeCheck SoftHard="Soft" def:ItemOID="IT.VS.VSTESTCD" Comparator="EQ">
               <CheckValue>BMI</CheckValue>
            </RangeCheck>
         </def:WhereClauseDef>
         <def:WhereClauseDef OID="WC.VS.VSTESTCD.DIABP">
            <RangeCheck SoftHard="Soft" def:ItemOID="IT.VS.VSTESTCD" Comparator="EQ">
               <CheckValue>DIABP</CheckValue>
            </RangeCheck>
         </def:WhereClauseDef>
         <def:WhereClauseDef OID="WC.VS.VSTESTCD.HEIGHT">
            <RangeCheck SoftHard="Soft" def:ItemOID="IT.VS.VSTESTCD" Comparator="EQ">
               <CheckValue>HEIGHT</CheckValue>
            </RangeCheck>
         </def:WhereClauseDef>
         <def:WhereClauseDef OID="WC.VS.VSTESTCD.PULSE">
            <RangeCheck SoftHard="Soft" def:ItemOID="IT.VS.VSTESTCD" Comparator="EQ">
               <CheckValue>PULSE</CheckValue>
            </RangeCheck>
         </def:WhereClauseDef>
         <def:WhereClauseDef OID="WC.VS.VSTESTCD.RESP">
            <RangeCheck SoftHard="Soft" def:ItemOID="IT.VS.VSTESTCD" Comparator="EQ">
               <CheckValue>RESP</CheckValue>
            </RangeCheck>
         </def:WhereClauseDef>
         <def:WhereClauseDef OID="WC.VS.VSTESTCD.SYSBP">
            <RangeCheck SoftHard="Soft" def:ItemOID="IT.VS.VSTESTCD" Comparator="EQ">
               <CheckValue>SYSBP</CheckValue>
            </RangeCheck>
         </def:WhereClauseDef>
         <def:WhereClauseDef OID="WC.VS.VSTESTCD.TEMP">
            <RangeCheck SoftHard="Soft" def:ItemOID="IT.VS.VSTESTCD" Comparator="EQ">
               <CheckValue>TEMP</CheckValue>
            </RangeCheck>
         </def:WhereClauseDef>
         <def:WhereClauseDef OID="WC.VS.VSTESTCD.WEIGHT">
            <RangeCheck SoftHard="Soft" def:ItemOID="IT.VS.VSTESTCD" Comparator="EQ">
               <CheckValue>WEIGHT</CheckValue>
            </RangeCheck>
         </def:WhereClauseDef>
         <ItemGroupDef OID="IG.TA" Domain="TA" Name="TA" Repeating="No" IsReferenceData="Yes"
                       SASDatasetName="TA"
                       Purpose="Tabulation"
                       def:Structure="One record per planned Element per Arm"
                       def:Class="TRIAL DESIGN"
                       def:ArchiveLocationID="LF.TA">
            <Description>
               <TranslatedText xml:lang="en">Trial Arms</TranslatedText>
            </Description>
            <ItemRef ItemOID="IT.TA.STUDYID" OrderNumber="1" Mandatory="Yes" KeySequence="1"
                     Role="Identifier"/>
            <ItemRef ItemOID="IT.TA.DOMAIN" OrderNumber="2" Mandatory="Yes" Role="Identifier"/>
            <ItemRef ItemOID="IT.TA.ARMCD" OrderNumber="3" Mandatory="Yes" KeySequence="2"
                     Role="Topic"/>
            <ItemRef ItemOID="IT.TA.ARM" OrderNumber="4" Mandatory="Yes" Role="Synonym Qualifier"/>
            <ItemRef ItemOID="IT.TA.TAETORD" OrderNumber="5" Mandatory="Yes" KeySequence="3"
                     Role="Timing"/>
            <ItemRef ItemOID="IT.TA.ETCD" OrderNumber="6" Mandatory="Yes" Role="Record Qualifier"/>
            <ItemRef ItemOID="IT.TA.ELEMENT" OrderNumber="7" Mandatory="No" Role="Synonym Qualifier"/>
            <ItemRef ItemOID="IT.TA.TABRANCH" OrderNumber="8" Mandatory="No" Role="Rule"/>
            <ItemRef ItemOID="IT.TA.TATRANS" OrderNumber="9" Mandatory="No" Role="Rule"/>
            <ItemRef ItemOID="IT.TA.EPOCH" OrderNumber="10" Mandatory="Yes" Role="Timing"/>
            <def:leaf ID="LF.TA" xlink:href="ta.xpt">
               <def:title>ta.xpt</def:title>
            </def:leaf>
         </ItemGroupDef>
         <ItemGroupDef OID="IG.TE" Domain="TE" Name="TE" Repeating="No" IsReferenceData="Yes"
                       SASDatasetName="TE"
                       Purpose="Tabulation"
                       def:Structure="One record per planned Element"
                       def:Class="TRIAL DESIGN"
                       def:ArchiveLocationID="LF.TE">
            <Description>
               <TranslatedText xml:lang="en">Trial Elements</TranslatedText>
            </Description>
            <ItemRef ItemOID="IT.TE.STUDYID" OrderNumber="1" Mandatory="Yes" KeySequence="1"
                     Role="Identifier"/>
            <ItemRef ItemOID="IT.TE.DOMAIN" OrderNumber="2" Mandatory="Yes" Role="Identifier"/>
            <ItemRef ItemOID="IT.TE.ETCD" OrderNumber="3" Mandatory="Yes" KeySequence="2"
                     Role="Topic"/>
            <ItemRef ItemOID="IT.TE.ELEMENT" OrderNumber="4" Mandatory="Yes"
                     Role="Synonym Qualifier"/>
            <ItemRef ItemOID="IT.TE.TESTRL" OrderNumber="5" Mandatory="Yes" Role="Rule"/>
            <ItemRef ItemOID="IT.TE.TEENRL" OrderNumber="6" Mandatory="No" Role="Rule"/>
            <ItemRef ItemOID="IT.TE.TEDUR" OrderNumber="7" Mandatory="No" Role="Timing"/>
            <def:leaf ID="LF.TE" xlink:href="te.xpt">
               <def:title>te.xpt</def:title>
            </def:leaf>
         </ItemGroupDef>
         <ItemGroupDef OID="IG.TI" Domain="TI" Name="TI" Repeating="No" IsReferenceData="Yes"
                       SASDatasetName="TI"
                       Purpose="Tabulation"
                       def:Structure="One record per I/E crierion"
                       def:Class="TRIAL DESIGN"
                       def:ArchiveLocationID="LF.TI">
            <Description>
               <TranslatedText xml:lang="en">Trial Inclusion/Exclusion Criteria</TranslatedText>
            </Description>
            <ItemRef ItemOID="IT.TI.STUDYID" OrderNumber="1" Mandatory="Yes" KeySequence="1"
                     Role="Identifier"/>
            <ItemRef ItemOID="IT.TI.DOMAIN" OrderNumber="2" Mandatory="Yes" Role="Identifier"/>
            <ItemRef ItemOID="IT.TI.IETESTCD" OrderNumber="3" Mandatory="Yes" KeySequence="2"
                     Role="Topic"/>
            <ItemRef ItemOID="IT.TI.IETEST" OrderNumber="4" Mandatory="Yes" Role="Synonym Qualifier"/>
            <ItemRef ItemOID="IT.TI.IECAT" OrderNumber="5" Mandatory="Yes" Role="Grouping Qualifier"/>
            <def:leaf ID="LF.TI" xlink:href="ti.xpt">
               <def:title>ti.xpt</def:title>
            </def:leaf>
         </ItemGroupDef>
         <ItemGroupDef OID="IG.TS" Domain="TS" Name="TS" Repeating="No" IsReferenceData="Yes"
                       SASDatasetName="TS"
                       Purpose="Tabulation"
                       def:Structure="One record per trial summary parameter value"
                       def:Class="TRIAL DESIGN"
                       def:ArchiveLocationID="LF.TS">
            <Description>
               <TranslatedText xml:lang="en">Trial Summary Information</TranslatedText>
            </Description>
            <ItemRef ItemOID="IT.TS.STUDYID" OrderNumber="1" Mandatory="Yes" KeySequence="1"
                     Role="Identifier"/>
            <ItemRef ItemOID="IT.TS.DOMAIN" OrderNumber="2" Mandatory="Yes" Role="Identifier"/>
            <ItemRef ItemOID="IT.TS.TSSEQ" OrderNumber="3" Mandatory="Yes" KeySequence="3"
                     MethodOID="MT.SEQ"
                     Role="Identifier"/>
            <ItemRef ItemOID="IT.TS.TSPARMCD" OrderNumber="4" Mandatory="Yes" KeySequence="2"
                     Role="Topic"/>
            <ItemRef ItemOID="IT.TS.TSPARM" OrderNumber="5" Mandatory="Yes" Role="Synonym Qualifier"/>
            <ItemRef ItemOID="IT.TS.TSVAL" OrderNumber="6" Mandatory="No" Role="Result Qualifier"/>
            <ItemRef ItemOID="IT.TS.TSVAL1" OrderNumber="7" Mandatory="No" Role="Result Qualifier"/>
            <ItemRef ItemOID="IT.TS.TSVALNF" OrderNumber="8" Mandatory="No" Role="Result Qualifier"/>
            <ItemRef ItemOID="IT.TS.TSVALCD" OrderNumber="9" Mandatory="No" Role="Result Qualifier"/>
            <ItemRef ItemOID="IT.TS.TSVCDREF" OrderNumber="10" Mandatory="No"
                     Role="Result Qualifier"/>
            <ItemRef ItemOID="IT.TS.TSVCDVER" OrderNumber="11" Mandatory="No"
                     Role="Result Qualifier"/>
            <def:leaf ID="LF.TS" xlink:href="ts.xpt">
               <def:title>ts.xpt</def:title>
            </def:leaf>
         </ItemGroupDef>
         <ItemGroupDef OID="IG.TV" Domain="TV" Name="TV" Repeating="No" IsReferenceData="Yes"
                       SASDatasetName="TV"
                       Purpose="Tabulation"
                       def:Structure="One record per planned Visit per Arm"
                       def:Class="TRIAL DESIGN"
                       def:ArchiveLocationID="LF.TV">
            <Description>
               <TranslatedText xml:lang="en">Trial Visits</TranslatedText>
            </Description>
            <ItemRef ItemOID="IT.TV.STUDYID" OrderNumber="1" Mandatory="Yes" KeySequence="1"
                     Role="Identifier"/>
            <ItemRef ItemOID="IT.TV.DOMAIN" OrderNumber="2" Mandatory="Yes" Role="Identifier"/>
            <ItemRef ItemOID="IT.TV.VISITNUM" OrderNumber="3" Mandatory="Yes" KeySequence="2"
                     Role="Topic"/>
            <ItemRef ItemOID="IT.TV.VISIT" OrderNumber="4" Mandatory="No" Role="Synonym Qualifier"/>
            <ItemRef ItemOID="IT.TV.ARMCD" OrderNumber="5" Mandatory="No" KeySequence="3"
                     Role="Record Qualifier"/>
            <ItemRef ItemOID="IT.TV.TVSTRL" OrderNumber="6" Mandatory="Yes" Role="Rule"/>
            <ItemRef ItemOID="IT.TV.TVENRL" OrderNumber="7" Mandatory="No" Role="Rule"/>
            <def:leaf ID="LF.TV" xlink:href="tv.xpt">
               <def:title>tv.xpt</def:title>
            </def:leaf>
         </ItemGroupDef>
         <ItemGroupDef OID="IG.DM" Domain="DM" Name="DM" Repeating="No" IsReferenceData="No"
                       SASDatasetName="DM"
                       Purpose="Tabulation"
                       def:Structure="One record per subject"
                       def:Class="SPECIAL PURPOSE"
                       def:ArchiveLocationID="LF.DM">
            <Description>
               <TranslatedText xml:lang="en">Demographics</TranslatedText>
            </Description>
            <ItemRef ItemOID="IT.DM.STUDYID" OrderNumber="1" Mandatory="Yes" KeySequence="1"
                     Role="Identifier"/>
            <ItemRef ItemOID="IT.DM.DOMAIN" OrderNumber="2" Mandatory="Yes" Role="Identifier"/>
            <ItemRef ItemOID="IT.DM.USUBJID" OrderNumber="3" Mandatory="Yes" KeySequence="2"
                     MethodOID="MT.USUBJID"
                     Role="Identifier"/>
            <ItemRef ItemOID="IT.DM.SUBJID" OrderNumber="4" Mandatory="Yes" Role="Topic"/>
            <ItemRef ItemOID="IT.DM.RFSTDTC" OrderNumber="5" Mandatory="No" MethodOID="MT.RFSTDTC"
                     Role="Record Qualifier"/>
            <ItemRef ItemOID="IT.DM.RFENDTC" OrderNumber="6" Mandatory="No" MethodOID="MT.RFENDTC"
                     Role="Record Qualifier"/>
            <ItemRef ItemOID="IT.DM.RFXSTDTC" OrderNumber="7" Mandatory="No" Role="Record Qualifier"/>
            <ItemRef ItemOID="IT.DM.RFXENDTC" OrderNumber="8" Mandatory="No" Role="Record Qualifier"/>
            <ItemRef ItemOID="IT.DM.RFICDTC" OrderNumber="9" Mandatory="No" Role="Record Qualifier"/>
            <ItemRef ItemOID="IT.DM.RFPENDTC" OrderNumber="10" Mandatory="No"
                     MethodOID="MT.RFPENDTC"
                     Role="Record Qualifier"/>
            <ItemRef ItemOID="IT.DM.DTHDTC" OrderNumber="11" Mandatory="No" MethodOID="MT.DM.DTHDTC"
                     Role="Record Qualifier"/>
            <ItemRef ItemOID="IT.DM.DTHFL" OrderNumber="12" Mandatory="No" MethodOID="MT.DM.DTHFL"
                     Role="Record Qualifier"/>
            <ItemRef ItemOID="IT.DM.SITEID" OrderNumber="13" Mandatory="Yes" Role="Record Qualifier"/>
            <ItemRef ItemOID="IT.DM.BRTHDTC" OrderNumber="14" Mandatory="No" Role="Record Qualifier"/>
            <ItemRef ItemOID="IT.DM.AGE" OrderNumber="15" Mandatory="No" Role="Record Qualifier"/>
            <ItemRef ItemOID="IT.DM.AGEU" OrderNumber="16" Mandatory="No" Role="Variable Qualifier"/>
            <ItemRef ItemOID="IT.DM.SEX" OrderNumber="17" Mandatory="Yes" Role="Record Qualifier"/>
            <ItemRef ItemOID="IT.DM.RACE" OrderNumber="18" Mandatory="No" Role="Record Qualifier"/>
            <ItemRef ItemOID="IT.DM.ETHNIC" OrderNumber="19" Mandatory="No" Role="Record Qualifier"/>
            <ItemRef ItemOID="IT.DM.ARMCD" OrderNumber="20" Mandatory="No" Role="Record Qualifier"/>
            <ItemRef ItemOID="IT.DM.ARM" OrderNumber="21" Mandatory="No" Role="Synonym Qualifier"/>
            <ItemRef ItemOID="IT.DM.ACTARMCD" OrderNumber="22" Mandatory="No"
                     Role="Record Qualifier"/>
            <ItemRef ItemOID="IT.DM.ACTARM" OrderNumber="23" Mandatory="No" Role="Synonym Qualifier"/>
            <ItemRef ItemOID="IT.DM.COUNTRY" OrderNumber="24" Mandatory="Yes"
                     Role="Record Qualifier"/>
            <def:leaf ID="LF.DM" xlink:href="dm.xpt">
               <def:title>dm.xpt</def:title>
            </def:leaf>
         </ItemGroupDef>
         <ItemGroupDef OID="IG.SE" Domain="SE" Name="SE" Repeating="Yes" IsReferenceData="No"
                       SASDatasetName="SE"
                       Purpose="Tabulation"
                       def:Structure="One record per actual Element per subject"
                       def:Class="SPECIAL PURPOSE"
                       def:ArchiveLocationID="LF.SE">
            <Description>
               <TranslatedText xml:lang="en">Subject Elements</TranslatedText>
            </Description>
            <ItemRef ItemOID="IT.SE.STUDYID" OrderNumber="1" Mandatory="Yes" KeySequence="1"
                     Role="Identifier"/>
            <ItemRef ItemOID="IT.SE.DOMAIN" OrderNumber="2" Mandatory="Yes" Role="Identifier"/>
            <ItemRef ItemOID="IT.SE.USUBJID" OrderNumber="3" Mandatory="Yes" KeySequence="2"
                     MethodOID="MT.USUBJID"
                     Role="Identifier"/>
            <ItemRef ItemOID="IT.SE.SESEQ" OrderNumber="4" Mandatory="Yes" MethodOID="MT.SEQ"
                     Role="Identifier"/>
            <ItemRef ItemOID="IT.SE.ETCD" OrderNumber="5" Mandatory="Yes" KeySequence="4"
                     Role="Topic"/>
            <ItemRef ItemOID="IT.SE.ELEMENT" OrderNumber="6" Mandatory="No" Role="Synonym Qualifier"/>
            <ItemRef ItemOID="IT.SE.TAETORD" OrderNumber="7" Mandatory="No" KeySequence="3"
                     Role="Timing"/>
            <ItemRef ItemOID="IT.SE.EPOCH" OrderNumber="8" Mandatory="No" Role="Timing"/>
            <ItemRef ItemOID="IT.SE.SESTDTC" OrderNumber="9" Mandatory="Yes" KeySequence="5"
                     MethodOID="MT.SESTDTC"
                     Role="Timing"/>
            <ItemRef ItemOID="IT.SE.SEENDTC" OrderNumber="10" Mandatory="No" MethodOID="MT.SEENDTC"
                     Role="Timing"/>
            <ItemRef ItemOID="IT.SE.SESTDY" OrderNumber="11" Mandatory="No" MethodOID="MT.DY"
                     Role="Timing"/>
            <ItemRef ItemOID="IT.SE.SEENDY" OrderNumber="12" Mandatory="No" MethodOID="MT.DY"
                     Role="Timing"/>
            <def:leaf ID="LF.SE" xlink:href="se.xpt">
               <def:title>se.xpt</def:title>
            </def:leaf>
         </ItemGroupDef>
         <ItemGroupDef OID="IG.SV" Domain="SV" Name="SV" Repeating="Yes" IsReferenceData="No"
                       SASDatasetName="SV"
                       Purpose="Tabulation"
                       def:Structure="One record per subject per actual visit"
                       def:Class="SPECIAL PURPOSE"
                       def:ArchiveLocationID="LF.SV">
            <Description>
               <TranslatedText xml:lang="en">Subject Visits</TranslatedText>
            </Description>
            <ItemRef ItemOID="IT.SV.STUDYID" OrderNumber="1" Mandatory="Yes" KeySequence="1"
                     Role="Identifier"/>
            <ItemRef ItemOID="IT.SV.DOMAIN" OrderNumber="2" Mandatory="Yes" Role="Identifier"/>
            <ItemRef ItemOID="IT.SV.USUBJID" OrderNumber="3" Mandatory="Yes" KeySequence="2"
                     MethodOID="MT.USUBJID"
                     Role="Identifier"/>
            <ItemRef ItemOID="IT.SV.VISITNUM" OrderNumber="4" Mandatory="Yes" KeySequence="3"
                     Role="Topic"/>
            <ItemRef ItemOID="IT.SV.VISIT" OrderNumber="5" Mandatory="No" Role="Synonym Qualifier"/>
            <ItemRef ItemOID="IT.SV.SVSTDTC" OrderNumber="6" Mandatory="No" MethodOID="MT.SVSTDTC"
                     Role="Timing"/>
            <ItemRef ItemOID="IT.SV.SVENDTC" OrderNumber="7" Mandatory="No" MethodOID="MT.SVENDTC"
                     Role="Timing"/>
            <ItemRef ItemOID="IT.SV.SVSTDY" OrderNumber="8" Mandatory="No" MethodOID="MT.DY"
                     Role="Timing"/>
            <ItemRef ItemOID="IT.SV.SVENDY" OrderNumber="9" Mandatory="No" MethodOID="MT.DY"
                     Role="Timing"/>
            <ItemRef ItemOID="IT.SV.SVUPDES" OrderNumber="10" Mandatory="No" MethodOID="MT.SVUPDES"
                     Role="Synonym Qualifier"/>
            <def:leaf ID="LF.SV" xlink:href="sv.xpt">
               <def:title>sv.xpt</def:title>
            </def:leaf>
         </ItemGroupDef>
         <ItemGroupDef OID="IG.CM" Domain="CM" Name="CM" Repeating="Yes" IsReferenceData="No"
                       SASDatasetName="CM"
                       Purpose="Tabulation"
                       def:Structure="One record per recorded intervention occurrence or constant-dosing interval per subject"
                       def:Class="INTERVENTIONS"
                       def:ArchiveLocationID="LF.CM">
            <Description>
               <TranslatedText xml:lang="en">Concomitant/Prior Medications</TranslatedText>
            </Description>
            <ItemRef ItemOID="IT.CM.STUDYID" OrderNumber="1" Mandatory="Yes" KeySequence="1"
                     Role="Identifier"/>
            <ItemRef ItemOID="IT.CM.DOMAIN" OrderNumber="2" Mandatory="Yes" Role="Identifier"/>
            <ItemRef ItemOID="IT.CM.USUBJID" OrderNumber="3" Mandatory="Yes" KeySequence="2"
                     MethodOID="MT.USUBJID"
                     Role="Identifier"/>
            <ItemRef ItemOID="IT.CM.CMSEQ" OrderNumber="4" Mandatory="Yes" MethodOID="MT.SEQ"
                     Role="Identifier"/>
            <ItemRef ItemOID="IT.CM.CMSPID" OrderNumber="5" Mandatory="No" Role="Identifier"/>
            <ItemRef ItemOID="IT.CM.CMTRT" OrderNumber="6" Mandatory="Yes" KeySequence="4"
                     Role="Topic"/>
            <ItemRef ItemOID="IT.CM.CMDECOD" OrderNumber="7" Mandatory="No" Role="Synonym Qualifier"/>
            <ItemRef ItemOID="IT.CM.CMCAT" OrderNumber="8" Mandatory="No" KeySequence="3"
                     Role="Grouping Qualifier"/>
            <ItemRef ItemOID="IT.CM.CMINDC" OrderNumber="9" Mandatory="No" Role="Record Qualifier"/>
            <ItemRef ItemOID="IT.CM.CMDOSE" OrderNumber="10" Mandatory="No" Role="Record Qualifier"/>
            <ItemRef ItemOID="IT.CM.CMDOSU" OrderNumber="11" Mandatory="No"
                     Role="Variable Qualifier"/>
            <ItemRef ItemOID="IT.CM.CMDOSFRQ" OrderNumber="12" Mandatory="No"
                     Role="Variable Qualifier"/>
            <ItemRef ItemOID="IT.CM.CMROUTE" OrderNumber="13" Mandatory="No"
                     Role="Variable Qualifier"/>
            <ItemRef ItemOID="IT.CM.EPOCH" OrderNumber="14" Mandatory="No"
                     MethodOID="MT.EPOCH/TAETORD"
                     Role="Timing"/>
            <ItemRef ItemOID="IT.CM.CMSTDTC" OrderNumber="15" Mandatory="No" KeySequence="5"
                     Role="Timing"/>
            <ItemRef ItemOID="IT.CM.CMENDTC" OrderNumber="16" Mandatory="No" KeySequence="6"
                     Role="Timing"/>
            <ItemRef ItemOID="IT.CM.CMSTDY" OrderNumber="17" Mandatory="No" MethodOID="MT.DY"
                     Role="Timing"/>
            <ItemRef ItemOID="IT.CM.CMENDY" OrderNumber="18" Mandatory="No" MethodOID="MT.DY"
                     Role="Timing"/>
            <ItemRef ItemOID="IT.CM.CMENRTPT" OrderNumber="19" Mandatory="No" Role="Timing"/>
            <ItemRef ItemOID="IT.CM.CMENTPT" OrderNumber="20" Mandatory="No" Role="Timing"/>
            <def:leaf ID="LF.CM" xlink:href="cm.xpt">
               <def:title>cm.xpt</def:title>
            </def:leaf>
         </ItemGroupDef>
         <ItemGroupDef OID="IG.EC" Domain="EC" Name="EC" Repeating="Yes" IsReferenceData="No"
                       SASDatasetName="EC"
                       Purpose="Tabulation"
                       def:Structure="One record per protocol-specified study treatment, collected-dosing interval, per subject, per mood"
                       def:Class="INTERVENTIONS"
                       def:ArchiveLocationID="LF.EC">
            <Description>
               <TranslatedText xml:lang="en">Exposure as Collected</TranslatedText>
            </Description>
            <ItemRef ItemOID="IT.EC.STUDYID" OrderNumber="1" Mandatory="Yes" KeySequence="1"
                     Role="Identifier"/>
            <ItemRef ItemOID="IT.EC.DOMAIN" OrderNumber="2" Mandatory="Yes" Role="Identifier"/>
            <ItemRef ItemOID="IT.EC.USUBJID" OrderNumber="3" Mandatory="Yes" KeySequence="2"
                     MethodOID="MT.USUBJID"
                     Role="Identifier"/>
            <ItemRef ItemOID="IT.EC.ECSEQ" OrderNumber="4" Mandatory="Yes" MethodOID="MT.SEQ"
                     Role="Identifier"/>
            <ItemRef ItemOID="IT.EC.ECTRT" OrderNumber="5" Mandatory="Yes" KeySequence="4"
                     Role="Topic"/>
            <ItemRef ItemOID="IT.EC.ECCAT" OrderNumber="6" Mandatory="No" KeySequence="3"
                     Role="Grouping Qualifier"/>
            <ItemRef ItemOID="IT.EC.ECDOSE" OrderNumber="7" Mandatory="No" Role="Record Qualifier"/>
            <ItemRef ItemOID="IT.EC.ECDOSU" OrderNumber="8" Mandatory="No" Role="Variable Qualifier"/>
            <ItemRef ItemOID="IT.EC.ECDOSFRM" OrderNumber="9" Mandatory="No"
                     Role="Variable Qualifier"/>
            <ItemRef ItemOID="IT.EC.EPOCH" OrderNumber="10" Mandatory="No"
                     MethodOID="MT.EPOCH/TAETORD"
                     Role="Timing"/>
            <ItemRef ItemOID="IT.EC.ECSTDTC" OrderNumber="11" Mandatory="No" KeySequence="5"
                     Role="Timing"/>
            <ItemRef ItemOID="IT.EC.ECENDTC" OrderNumber="12" Mandatory="No" KeySequence="6"
                     Role="Timing"/>
            <ItemRef ItemOID="IT.EC.ECSTDY" OrderNumber="13" Mandatory="No" MethodOID="MT.DY"
                     Role="Timing"/>
            <ItemRef ItemOID="IT.EC.ECENDY" OrderNumber="14" Mandatory="No" MethodOID="MT.DY"
                     Role="Timing"/>
            <def:leaf ID="LF.EC" xlink:href="ec.xpt">
               <def:title>ec.xpt</def:title>
            </def:leaf>
         </ItemGroupDef>
         <ItemGroupDef OID="IG.EX" Domain="EX" Name="EX" Repeating="Yes" IsReferenceData="No"
                       SASDatasetName="EX"
                       Purpose="Tabulation"
                       def:Structure="One record per protocol-specified study treatment, constant-dosing interval, per subject"
                       def:Class="INTERVENTIONS"
                       def:ArchiveLocationID="LF.EX">
            <Description>
               <TranslatedText xml:lang="en">Exposure</TranslatedText>
            </Description>
            <ItemRef ItemOID="IT.EX.STUDYID" OrderNumber="1" Mandatory="Yes" KeySequence="1"
                     Role="Identifier"/>
            <ItemRef ItemOID="IT.EX.DOMAIN" OrderNumber="2" Mandatory="Yes" Role="Identifier"/>
            <ItemRef ItemOID="IT.EX.USUBJID" OrderNumber="3" Mandatory="Yes" KeySequence="2"
                     MethodOID="MT.USUBJID"
                     Role="Identifier"/>
            <ItemRef ItemOID="IT.EX.EXSEQ" OrderNumber="4" Mandatory="Yes" MethodOID="MT.SEQ"
                     Role="Identifier"/>
            <ItemRef ItemOID="IT.EX.EXTRT" OrderNumber="5" Mandatory="Yes" KeySequence="3"
                     Role="Topic"/>
            <ItemRef ItemOID="IT.EX.EXDOSE" OrderNumber="6" Mandatory="No" Role="Record Qualifier"/>
            <ItemRef ItemOID="IT.EX.EXDOSU" OrderNumber="7" Mandatory="No" Role="Variable Qualifier"/>
            <ItemRef ItemOID="IT.EX.EXDOSFRM" OrderNumber="8" Mandatory="No"
                     Role="Variable Qualifier"/>
            <ItemRef ItemOID="IT.EX.EXDOSFRQ" OrderNumber="9" Mandatory="No"
                     Role="Variable Qualifier"/>
            <ItemRef ItemOID="IT.EX.EPOCH" OrderNumber="10" Mandatory="No"
                     MethodOID="MT.EPOCH/TAETORD"
                     Role="Timing"/>
            <ItemRef ItemOID="IT.EX.EXSTDTC" OrderNumber="11" Mandatory="No" KeySequence="4"
                     Role="Timing"/>
            <ItemRef ItemOID="IT.EX.EXENDTC" OrderNumber="12" Mandatory="No" KeySequence="5"
                     Role="Timing"/>
            <ItemRef ItemOID="IT.EX.EXSTDY" OrderNumber="13" Mandatory="No" MethodOID="MT.DY"
                     Role="Timing"/>
            <ItemRef ItemOID="IT.EX.EXENDY" OrderNumber="14" Mandatory="No" MethodOID="MT.DY"
                     Role="Timing"/>
            <def:leaf ID="LF.EX" xlink:href="ex.xpt">
               <def:title>ex.xpt</def:title>
            </def:leaf>
         </ItemGroupDef>
         <ItemGroupDef OID="IG.SU" Domain="SU" Name="SU" Repeating="Yes" IsReferenceData="No"
                       SASDatasetName="SU"
                       Purpose="Tabulation"
                       def:Structure="One record per substance type per reported occurrence per subject"
                       def:Class="INTERVENTIONS"
                       def:ArchiveLocationID="LF.SU">
            <Description>
               <TranslatedText xml:lang="en">Substance Use</TranslatedText>
            </Description>
            <ItemRef ItemOID="IT.SU.STUDYID" OrderNumber="1" Mandatory="Yes" KeySequence="1"
                     Role="Identifier"/>
            <ItemRef ItemOID="IT.SU.DOMAIN" OrderNumber="2" Mandatory="Yes" Role="Identifier"/>
            <ItemRef ItemOID="IT.SU.USUBJID" OrderNumber="3" Mandatory="Yes" KeySequence="2"
                     MethodOID="MT.USUBJID"
                     Role="Identifier"/>
            <ItemRef ItemOID="IT.SU.SUSEQ" OrderNumber="4" Mandatory="Yes" MethodOID="MT.SEQ"
                     Role="Identifier"/>
            <ItemRef ItemOID="IT.SU.SUSPID" OrderNumber="5" Mandatory="No" Role="Identifier"/>
            <ItemRef ItemOID="IT.SU.SUTRT" OrderNumber="6" Mandatory="Yes" KeySequence="3"
                     Role="Topic"/>
            <ItemRef ItemOID="IT.SU.SUCAT" OrderNumber="7" Mandatory="No" Role="Grouping Qualifier"/>
            <ItemRef ItemOID="IT.SU.SUPRESP" OrderNumber="8" Mandatory="No"
                     Role="Variable Qualifier"/>
            <ItemRef ItemOID="IT.SU.SUOCCUR" OrderNumber="9" Mandatory="No" Role="Record Qualifier"/>
            <ItemRef ItemOID="IT.SU.SUDOSTXT" OrderNumber="10" Mandatory="No"
                     Role="Record Qualifier"/>
            <ItemRef ItemOID="IT.SU.SUDOSU" OrderNumber="11" Mandatory="No"
                     Role="Variable Qualifier"/>
            <ItemRef ItemOID="IT.SU.SUDOSFRQ" OrderNumber="12" Mandatory="No"
                     Role="Variable Qualifier"/>
            <def:leaf ID="LF.SU" xlink:href="su.xpt">
               <def:title>su.xpt</def:title>
            </def:leaf>
         </ItemGroupDef>
         <ItemGroupDef OID="IG.AE" Domain="AE" Name="AE" Repeating="Yes" IsReferenceData="No"
                       SASDatasetName="AE"
                       Purpose="Tabulation"
                       def:Structure="One record per adverse event per subject"
                       def:Class="EVENTS"
                       def:ArchiveLocationID="LF.AE">
            <Description>
               <TranslatedText xml:lang="en">Adverse Events</TranslatedText>
            </Description>
            <ItemRef ItemOID="IT.AE.STUDYID" OrderNumber="1" Mandatory="Yes" KeySequence="1"
                     Role="Identifier"/>
            <ItemRef ItemOID="IT.AE.DOMAIN" OrderNumber="2" Mandatory="Yes" Role="Identifier"/>
            <ItemRef ItemOID="IT.AE.USUBJID" OrderNumber="3" Mandatory="Yes" KeySequence="2"
                     MethodOID="MT.USUBJID"
                     Role="Identifier"/>
            <ItemRef ItemOID="IT.AE.AESEQ" OrderNumber="4" Mandatory="Yes" MethodOID="MT.SEQ"
                     Role="Identifier"/>
            <ItemRef ItemOID="IT.AE.AESPID" OrderNumber="5" Mandatory="No" Role="Identifier"/>
            <ItemRef ItemOID="IT.AE.AETERM" OrderNumber="6" Mandatory="Yes" Role="Topic"/>
            <ItemRef ItemOID="IT.AE.AELLT" OrderNumber="7" Mandatory="No" Role="Variable Qualifier"/>
            <ItemRef ItemOID="IT.AE.AELLTCD" OrderNumber="8" Mandatory="No"
                     Role="Variable Qualifier"/>
            <ItemRef ItemOID="IT.AE.AEDECOD" OrderNumber="9" Mandatory="Yes" KeySequence="3"
                     Role="Synonym Qualifier"/>
            <ItemRef ItemOID="IT.AE.AEPTCD" OrderNumber="10" Mandatory="No"
                     Role="Variable Qualifier"/>
            <ItemRef ItemOID="IT.AE.AEHLT" OrderNumber="11" Mandatory="No" Role="Variable Qualifier"/>
            <ItemRef ItemOID="IT.AE.AEHLTCD" OrderNumber="12" Mandatory="No"
                     Role="Variable Qualifier"/>
            <ItemRef ItemOID="IT.AE.AEHLGT" OrderNumber="13" Mandatory="No"
                     Role="Variable Qualifier"/>
            <ItemRef ItemOID="IT.AE.AEHLGTCD" OrderNumber="14" Mandatory="No"
                     Role="Variable Qualifier"/>
            <ItemRef ItemOID="IT.AE.AEBODSYS" OrderNumber="15" Mandatory="No"
                     Role="Record Qualifier"/>
            <ItemRef ItemOID="IT.AE.AEBDSYCD" OrderNumber="16" Mandatory="No"
                     Role="Variable Qualifier"/>
            <ItemRef ItemOID="IT.AE.AESOC" OrderNumber="17" Mandatory="No" Role="Variable Qualifier"/>
            <ItemRef ItemOID="IT.AE.AESOCCD" OrderNumber="18" Mandatory="No"
                     Role="Variable Qualifier"/>
            <ItemRef ItemOID="IT.AE.AESER" OrderNumber="19" Mandatory="No" Role="Record Qualifier"/>
            <ItemRef ItemOID="IT.AE.AEACN" OrderNumber="20" Mandatory="No" Role="Record Qualifier"/>
            <ItemRef ItemOID="IT.AE.AEACNOTH" OrderNumber="21" Mandatory="No"
                     Role="Record Qualifier"/>
            <ItemRef ItemOID="IT.AE.AEREL" OrderNumber="22" Mandatory="No" Role="Record Qualifier"/>
            <ItemRef ItemOID="IT.AE.AEPATT" OrderNumber="23" Mandatory="No" Role="Record Qualifier"/>
            <ItemRef ItemOID="IT.AE.AEOUT" OrderNumber="24" Mandatory="No" Role="Record Qualifier"/>
            <ItemRef ItemOID="IT.AE.AETOXGR" OrderNumber="25" Mandatory="No" Role="Record Qualifier"/>
            <ItemRef ItemOID="IT.AE.EPOCH" OrderNumber="26" Mandatory="No"
                     MethodOID="MT.EPOCH/TAETORD"
                     Role="Timing"/>
            <ItemRef ItemOID="IT.AE.AESTDTC" OrderNumber="27" Mandatory="No" KeySequence="4"
                     Role="Timing"/>
            <ItemRef ItemOID="IT.AE.AEENDTC" OrderNumber="28" Mandatory="No" Role="Timing"/>
            <ItemRef ItemOID="IT.AE.AESTDY" OrderNumber="29" Mandatory="No" MethodOID="MT.DY"
                     Role="Timing"/>
            <ItemRef ItemOID="IT.AE.AEENDY" OrderNumber="30" Mandatory="No" MethodOID="MT.DY"
                     Role="Timing"/>
            <def:leaf ID="LF.AE" xlink:href="ae.xpt">
               <def:title>ae.xpt</def:title>
            </def:leaf>
         </ItemGroupDef>
         <ItemGroupDef OID="IG.DS" Domain="DS" Name="DS" Repeating="Yes" IsReferenceData="No"
                       SASDatasetName="DS"
                       Purpose="Tabulation"
                       def:Structure="One record per disposition status or protocol milestone per subject"
                       def:Class="EVENTS"
                       def:ArchiveLocationID="LF.DS">
            <Description>
               <TranslatedText xml:lang="en">Disposition</TranslatedText>
            </Description>
            <ItemRef ItemOID="IT.DS.STUDYID" OrderNumber="1" Mandatory="Yes" KeySequence="1"
                     Role="Identifier"/>
            <ItemRef ItemOID="IT.DS.DOMAIN" OrderNumber="2" Mandatory="Yes" Role="Identifier"/>
            <ItemRef ItemOID="IT.DS.USUBJID" OrderNumber="3" Mandatory="Yes" KeySequence="2"
                     MethodOID="MT.USUBJID"
                     Role="Identifier"/>
            <ItemRef ItemOID="IT.DS.DSSEQ" OrderNumber="4" Mandatory="Yes" MethodOID="MT.SEQ"
                     Role="Identifier"/>
            <ItemRef ItemOID="IT.DS.DSTERM" OrderNumber="5" Mandatory="Yes" Role="Topic"/>
            <ItemRef ItemOID="IT.DS.DSDECOD" OrderNumber="6" Mandatory="Yes" KeySequence="3"
                     Role="Synonym Qualifier"/>
            <ItemRef ItemOID="IT.DS.DSCAT" OrderNumber="7" Mandatory="No" Role="Grouping Qualifier"/>
            <ItemRef ItemOID="IT.DS.EPOCH" OrderNumber="8" Mandatory="No"
                     MethodOID="MT.EPOCH/TAETORD"
                     Role="Timing"/>
            <ItemRef ItemOID="IT.DS.DSSTDTC" OrderNumber="9" Mandatory="No" KeySequence="4"
                     Role="Timing"/>
            <ItemRef ItemOID="IT.DS.DSSTDY" OrderNumber="10" Mandatory="No" MethodOID="MT.DY"
                     Role="Timing"/>
            <def:leaf ID="LF.DS" xlink:href="ds.xpt">
               <def:title>ds.xpt</def:title>
            </def:leaf>
         </ItemGroupDef>
         <ItemGroupDef OID="IG.DV" Domain="DV" Name="DV" Repeating="Yes" IsReferenceData="No"
                       SASDatasetName="DV"
                       Purpose="Tabulation"
                       def:Structure="One record per protocol deviation per subject"
                       def:Class="EVENTS"
                       def:ArchiveLocationID="LF.DV">
            <Description>
               <TranslatedText xml:lang="en">Protocol Deviations</TranslatedText>
            </Description>
            <ItemRef ItemOID="IT.DV.STUDYID" OrderNumber="1" Mandatory="Yes" KeySequence="1"
                     Role="Identifier"/>
            <ItemRef ItemOID="IT.DV.DOMAIN" OrderNumber="2" Mandatory="Yes" Role="Identifier"/>
            <ItemRef ItemOID="IT.DV.USUBJID" OrderNumber="3" Mandatory="Yes" KeySequence="2"
                     MethodOID="MT.USUBJID"
                     Role="Identifier"/>
            <ItemRef ItemOID="IT.DV.DVSEQ" OrderNumber="4" Mandatory="Yes" MethodOID="MT.SEQ"
                     Role="Identifier"/>
            <ItemRef ItemOID="IT.DV.DVTERM" OrderNumber="5" Mandatory="Yes" KeySequence="3"
                     Role="Topic"/>
            <ItemRef ItemOID="IT.DV.EPOCH" OrderNumber="6" Mandatory="No"
                     MethodOID="MT.EPOCH/TAETORD"
                     Role="Timing"/>
            <ItemRef ItemOID="IT.DV.DVSTDTC" OrderNumber="7" Mandatory="No" KeySequence="4"
                     Role="Timing"/>
            <ItemRef ItemOID="IT.DV.DVSTDY" OrderNumber="8" Mandatory="No" MethodOID="MT.DY"
                     Role="Timing"/>
            <def:leaf ID="LF.DV" xlink:href="dv.xpt">
               <def:title>dv.xpt</def:title>
            </def:leaf>
         </ItemGroupDef>
         <ItemGroupDef OID="IG.MH" Domain="MH" Name="MH" Repeating="Yes" IsReferenceData="No"
                       SASDatasetName="MH"
                       Purpose="Tabulation"
                       def:Structure="One record per medical history event per subject"
                       def:Class="EVENTS"
                       def:ArchiveLocationID="LF.MH">
            <Description>
               <TranslatedText xml:lang="en">Medical History</TranslatedText>
            </Description>
            <ItemRef ItemOID="IT.MH.STUDYID" OrderNumber="1" Mandatory="Yes" KeySequence="1"
                     Role="Identifier"/>
            <ItemRef ItemOID="IT.MH.DOMAIN" OrderNumber="2" Mandatory="Yes" Role="Identifier"/>
            <ItemRef ItemOID="IT.MH.USUBJID" OrderNumber="3" Mandatory="Yes" KeySequence="2"
                     MethodOID="MT.USUBJID"
                     Role="Identifier"/>
            <ItemRef ItemOID="IT.MH.MHSEQ" OrderNumber="4" Mandatory="Yes" MethodOID="MT.SEQ"
                     Role="Identifier"/>
            <ItemRef ItemOID="IT.MH.MHSPID" OrderNumber="5" Mandatory="No" Role="Identifier"/>
            <ItemRef ItemOID="IT.MH.MHTERM" OrderNumber="6" Mandatory="Yes" KeySequence="3"
                     Role="Topic"/>
            <ItemRef ItemOID="IT.MH.MHCAT" OrderNumber="7" Mandatory="No" Role="Grouping Qualifier"/>
            <ItemRef ItemOID="IT.MH.MHSTDTC" OrderNumber="8" Mandatory="No" KeySequence="4"
                     Role="Timing"/>
            <ItemRef ItemOID="IT.MH.MHENRTPT" OrderNumber="9" Mandatory="No" Role="Timing"/>
            <ItemRef ItemOID="IT.MH.MHENTPT" OrderNumber="10" Mandatory="No" Role="Timing"/>
            <def:leaf ID="LF.MH" xlink:href="mh.xpt">
               <def:title>mh.xpt</def:title>
            </def:leaf>
         </ItemGroupDef>
         <ItemGroupDef OID="IG.EG" Domain="EG" Name="EG" Repeating="Yes" IsReferenceData="No"
                       SASDatasetName="EG"
                       Purpose="Tabulation"
                       def:Structure="One record per ECG observation per replicate per time point or one record per ECG observation per beat per visit per subject"
                       def:Class="FINDINGS"
                       def:ArchiveLocationID="LF.EG">
            <Description>
               <TranslatedText xml:lang="en">ECG Test Results</TranslatedText>
            </Description>
            <ItemRef ItemOID="IT.EG.STUDYID" OrderNumber="1" Mandatory="Yes" KeySequence="1"
                     Role="Identifier"/>
            <ItemRef ItemOID="IT.EG.DOMAIN" OrderNumber="2" Mandatory="Yes" Role="Identifier"/>
            <ItemRef ItemOID="IT.EG.USUBJID" OrderNumber="3" Mandatory="Yes" KeySequence="2"
                     MethodOID="MT.USUBJID"
                     Role="Identifier"/>
            <ItemRef ItemOID="IT.EG.EGSEQ" OrderNumber="4" Mandatory="Yes" MethodOID="MT.SEQ"
                     Role="Identifier"/>
            <ItemRef ItemOID="IT.EG.EGTESTCD" OrderNumber="5" Mandatory="Yes" KeySequence="4"
                     Role="Topic"/>
            <ItemRef ItemOID="IT.EG.EGTEST" OrderNumber="6" Mandatory="Yes" Role="Synonym Qualifier"/>
            <ItemRef ItemOID="IT.EG.EGORRES" OrderNumber="7" Mandatory="No" Role="Result Qualifier"/>
            <ItemRef ItemOID="IT.EG.EGSTRESC" OrderNumber="8" Mandatory="No" MethodOID="MT.STRESC"
                     Role="Result Qualifier"/>
            <ItemRef ItemOID="IT.EG.EGSTAT" OrderNumber="9" Mandatory="No" Role="Record Qualifier"/>
            <ItemRef ItemOID="IT.EG.EGMETHOD" OrderNumber="10" Mandatory="No" KeySequence="3"
                     Role="Record Qualifier"/>
            <ItemRef ItemOID="IT.EG.EGBLFL" OrderNumber="11" Mandatory="No" MethodOID="MT.BLFL"
                     Role="Record Qualifier"/>
            <ItemRef ItemOID="IT.EG.VISITNUM" OrderNumber="12" Mandatory="No" KeySequence="5"
                     Role="Timing"/>
            <ItemRef ItemOID="IT.EG.VISIT" OrderNumber="13" Mandatory="No" Role="Timing"/>
            <ItemRef ItemOID="IT.EG.EPOCH" OrderNumber="14" Mandatory="No"
                     MethodOID="MT.EPOCH/TAETORD"
                     Role="Timing"/>
            <ItemRef ItemOID="IT.EG.EGDTC" OrderNumber="15" Mandatory="No" Role="Timing"/>
            <ItemRef ItemOID="IT.EG.EGDY" OrderNumber="16" Mandatory="No" MethodOID="MT.DY"
                     Role="Timing"/>
            <def:leaf ID="LF.EG" xlink:href="eg.xpt">
               <def:title>eg.xpt</def:title>
            </def:leaf>
         </ItemGroupDef>
         <ItemGroupDef OID="IG.FA" Domain="FA" Name="FA" Repeating="Yes" IsReferenceData="No"
                       SASDatasetName="FA"
                       Purpose="Tabulation"
                       def:Structure="One record per finding, per object, per time point, per visit per subject"
                       def:Class="FINDINGS"
                       def:ArchiveLocationID="LF.FA">
            <Description>
               <TranslatedText xml:lang="en">Findings About Events or Interventions</TranslatedText>
            </Description>
            <ItemRef ItemOID="IT.FA.STUDYID" OrderNumber="1" Mandatory="Yes" KeySequence="1"
                     Role="Identifier"/>
            <ItemRef ItemOID="IT.FA.DOMAIN" OrderNumber="2" Mandatory="Yes" Role="Identifier"/>
            <ItemRef ItemOID="IT.FA.USUBJID" OrderNumber="3" Mandatory="Yes" KeySequence="2"
                     MethodOID="MT.USUBJID"
                     Role="Identifier"/>
            <ItemRef ItemOID="IT.FA.FASEQ" OrderNumber="4" Mandatory="Yes" MethodOID="MT.SEQ"
                     Role="Identifier"/>
            <ItemRef ItemOID="IT.FA.FAGRPID" OrderNumber="5" Mandatory="No" Role="Identifier"/>
            <ItemRef ItemOID="IT.FA.FASPID" OrderNumber="6" Mandatory="No" Role="Identifier"/>
            <ItemRef ItemOID="IT.FA.FATESTCD" OrderNumber="7" Mandatory="Yes" KeySequence="3"
                     Role="Topic"/>
            <ItemRef ItemOID="IT.FA.FATEST" OrderNumber="8" Mandatory="Yes" Role="Synonym Qualifier"/>
            <ItemRef ItemOID="IT.FA.FAOBJ" OrderNumber="9" Mandatory="Yes" KeySequence="4"
                     Role="Record Qualifier"/>
            <ItemRef ItemOID="IT.FA.FACAT" OrderNumber="10" Mandatory="No" Role="Grouping Qualifier"/>
            <ItemRef ItemOID="IT.FA.FAORRES" OrderNumber="11" Mandatory="No" Role="Result Qualifier"/>
            <ItemRef ItemOID="IT.FA.FAORRESU" OrderNumber="12" Mandatory="No"
                     Role="Variable Qualifier"/>
            <ItemRef ItemOID="IT.FA.FASTRESC" OrderNumber="13" Mandatory="No" MethodOID="MT.STRESC"
                     Role="Result Qualifier"/>
            <ItemRef ItemOID="IT.FA.FASTRESN" OrderNumber="14" Mandatory="No" MethodOID="MT.STRESN"
                     Role="Result Qualifier"/>
            <ItemRef ItemOID="IT.FA.FASTRESU" OrderNumber="15" Mandatory="No" MethodOID="MT.STRESU"
                     Role="Variable Qualifier"/>
            <ItemRef ItemOID="IT.FA.VISITNUM" OrderNumber="16" Mandatory="No" KeySequence="5"
                     Role="Timing"/>
            <ItemRef ItemOID="IT.FA.VISIT" OrderNumber="17" Mandatory="No" Role="Timing"/>
            <ItemRef ItemOID="IT.FA.EPOCH" OrderNumber="18" Mandatory="No"
                     MethodOID="MT.EPOCH/TAETORD"
                     Role="Timing"/>
            <ItemRef ItemOID="IT.FA.FADTC" OrderNumber="19" Mandatory="No" Role="Timing"/>
            <ItemRef ItemOID="IT.FA.FADY" OrderNumber="20" Mandatory="No" MethodOID="MT.DY"
                     Role="Timing"/>
            <def:leaf ID="LF.FA" xlink:href="fa.xpt">
               <def:title>fa.xpt</def:title>
            </def:leaf>
         </ItemGroupDef>
         <ItemGroupDef OID="IG.IE" Domain="IE" Name="IE" Repeating="Yes" IsReferenceData="No"
                       SASDatasetName="IE"
                       Purpose="Tabulation"
                       def:Structure="One record per inclusion/exclusion criterion not met per subject"
                       def:Class="FINDINGS"
                       def:ArchiveLocationID="LF.IE">
            <Description>
               <TranslatedText xml:lang="en">Inclusion/Exclusion Criteria Not Met</TranslatedText>
            </Description>
            <ItemRef ItemOID="IT.IE.STUDYID" OrderNumber="1" Mandatory="Yes" KeySequence="1"
                     Role="Identifier"/>
            <ItemRef ItemOID="IT.IE.DOMAIN" OrderNumber="2" Mandatory="Yes" Role="Identifier"/>
            <ItemRef ItemOID="IT.IE.USUBJID" OrderNumber="3" Mandatory="Yes" KeySequence="2"
                     MethodOID="MT.USUBJID"
                     Role="Identifier"/>
            <ItemRef ItemOID="IT.IE.IESEQ" OrderNumber="4" Mandatory="Yes" MethodOID="MT.SEQ"
                     Role="Identifier"/>
            <ItemRef ItemOID="IT.IE.IETESTCD" OrderNumber="5" Mandatory="Yes" KeySequence="3"
                     Role="Topic"/>
            <ItemRef ItemOID="IT.IE.IETEST" OrderNumber="6" Mandatory="Yes" Role="Synonym Qualifier"/>
            <ItemRef ItemOID="IT.IE.IECAT" OrderNumber="7" Mandatory="Yes" Role="Grouping Qualifier"/>
            <ItemRef ItemOID="IT.IE.IEORRES" OrderNumber="8" Mandatory="Yes" Role="Result Qualifier"/>
            <ItemRef ItemOID="IT.IE.IESTRESC" OrderNumber="9" Mandatory="Yes" MethodOID="MT.STRESC"
                     Role="Result Qualifier"/>
            <ItemRef ItemOID="IT.IE.VISITNUM" OrderNumber="10" Mandatory="No" Role="Timing"/>
            <ItemRef ItemOID="IT.IE.VISIT" OrderNumber="11" Mandatory="No" Role="Timing"/>
            <ItemRef ItemOID="IT.IE.EPOCH" OrderNumber="12" Mandatory="No" Role="Timing"/>
            <def:leaf ID="LF.IE" xlink:href="ie.xpt">
               <def:title>ie.xpt</def:title>
            </def:leaf>
         </ItemGroupDef>
         <ItemGroupDef OID="IG.IS" Domain="IS" Name="IS" Repeating="Yes" IsReferenceData="No"
                       SASDatasetName="IS"
                       Purpose="Tabulation"
                       def:Structure="One record per test per visit per subject"
                       def:Class="FINDINGS"
                       def:ArchiveLocationID="LF.IS">
            <Description>
               <TranslatedText xml:lang="en">Immunogenicity Specimen Assessments</TranslatedText>
            </Description>
            <ItemRef ItemOID="IT.IS.STUDYID" OrderNumber="1" Mandatory="Yes" KeySequence="1"
                     Role="Identifier"/>
            <ItemRef ItemOID="IT.IS.DOMAIN" OrderNumber="2" Mandatory="Yes" Role="Identifier"/>
            <ItemRef ItemOID="IT.IS.USUBJID" OrderNumber="3" Mandatory="Yes" KeySequence="2"
                     MethodOID="MT.USUBJID"
                     Role="Identifier"/>
            <ItemRef ItemOID="IT.IS.ISSEQ" OrderNumber="4" Mandatory="Yes" MethodOID="MT.SEQ"
                     Role="Identifier"/>
            <ItemRef ItemOID="IT.IS.ISTESTCD" OrderNumber="5" Mandatory="Yes" KeySequence="3"
                     Role="Topic"/>
            <ItemRef ItemOID="IT.IS.ISTEST" OrderNumber="6" Mandatory="Yes" Role="Synonym Qualifier"/>
            <ItemRef ItemOID="IT.IS.ISCAT" OrderNumber="7" Mandatory="No" Role="Synonym Qualifier"/>
            <ItemRef ItemOID="IT.IS.ISORRES" OrderNumber="8" Mandatory="No" Role="Result Qualifier"/>
            <ItemRef ItemOID="IT.IS.ISORRESU" OrderNumber="9" Mandatory="No"
                     Role="Variable Qualifier"/>
            <ItemRef ItemOID="IT.IS.ISSTRESC" OrderNumber="10" Mandatory="No" MethodOID="MT.STRESC"
                     Role="Result Qualifier"/>
            <ItemRef ItemOID="IT.IS.ISSTRESN" OrderNumber="11" Mandatory="No" MethodOID="MT.STRESN"
                     Role="Result Qualifier"/>
            <ItemRef ItemOID="IT.IS.ISSTRESU" OrderNumber="12" Mandatory="No" MethodOID="MT.STRESU"
                     Role="Variable Qualifier"/>
            <ItemRef ItemOID="IT.IS.ISLLOQ" OrderNumber="13" Mandatory="No"
                     Role="Variable Qualifier"/>
            <ItemRef ItemOID="IT.IS.ISULOQ" OrderNumber="14" Mandatory="No"
                     Role="Variable Qualifier"/>
            <ItemRef ItemOID="IT.IS.VISITNUM" OrderNumber="15" Mandatory="No" Role="Timing"/>
            <ItemRef ItemOID="IT.IS.VISIT" OrderNumber="16" Mandatory="No" Role="Timing"/>
            <ItemRef ItemOID="IT.IS.EPOCH" OrderNumber="17" Mandatory="No"
                     MethodOID="MT.EPOCH/TAETORD"
                     Role="Timing"/>
            <ItemRef ItemOID="IT.IS.ISDTC" OrderNumber="18" Mandatory="No" Role="Timing"/>
            <ItemRef ItemOID="IT.IS.ISDY" OrderNumber="19" Mandatory="No" MethodOID="MT.DY"
                     Role="Timing"/>
            <def:leaf ID="LF.IS" xlink:href="is.xpt">
               <def:title>is.xpt</def:title>
            </def:leaf>
         </ItemGroupDef>
         <ItemGroupDef OID="IG.LB" Domain="LB" Name="LB" Repeating="Yes" IsReferenceData="No"
                       SASDatasetName="LB"
                       Purpose="Tabulation"
                       def:Structure="One record per lab test per time point per visit per subject"
                       def:Class="FINDINGS"
                       def:ArchiveLocationID="LF.LB">
            <Description>
               <TranslatedText xml:lang="en">Laboratory Test Results</TranslatedText>
            </Description>
            <ItemRef ItemOID="IT.LB.STUDYID" OrderNumber="1" Mandatory="Yes" KeySequence="1"
                     Role="Identifier"/>
            <ItemRef ItemOID="IT.LB.DOMAIN" OrderNumber="2" Mandatory="Yes" Role="Identifier"/>
            <ItemRef ItemOID="IT.LB.USUBJID" OrderNumber="3" Mandatory="Yes" KeySequence="2"
                     MethodOID="MT.USUBJID"
                     Role="Identifier"/>
            <ItemRef ItemOID="IT.LB.LBSEQ" OrderNumber="4" Mandatory="Yes" MethodOID="MT.SEQ"
                     Role="Identifier"/>
            <ItemRef ItemOID="IT.LB.LBSPID" OrderNumber="5" Mandatory="No" Role="Identifier"/>
            <ItemRef ItemOID="IT.LB.LBTESTCD" OrderNumber="6" Mandatory="Yes" KeySequence="5"
                     Role="Topic"/>
            <ItemRef ItemOID="IT.LB.LBTEST" OrderNumber="7" Mandatory="Yes" Role="Synonym Qualifier"/>
            <ItemRef ItemOID="IT.LB.LBCAT" OrderNumber="8" Mandatory="No" KeySequence="3"
                     Role="Grouping Qualifier"/>
            <ItemRef ItemOID="IT.LB.LBSCAT" OrderNumber="9" Mandatory="No" KeySequence="4"
                     Role="Grouping Qualifier"/>
            <ItemRef ItemOID="IT.LB.LBORRES" OrderNumber="10" Mandatory="No" Role="Result Qualifier"/>
            <ItemRef ItemOID="IT.LB.LBORRESU" OrderNumber="11" Mandatory="No"
                     Role="Variable Qualifier"/>
            <ItemRef ItemOID="IT.LB.LBORNRLO" OrderNumber="12" Mandatory="No"
                     Role="Variable Qualifier"/>
            <ItemRef ItemOID="IT.LB.LBORNRHI" OrderNumber="13" Mandatory="No"
                     Role="Variable Qualifier"/>
            <ItemRef ItemOID="IT.LB.LBSTRESC" OrderNumber="14" Mandatory="No" MethodOID="MT.STRESC"
                     Role="Result Qualifier"/>
            <ItemRef ItemOID="IT.LB.LBSTRESN" OrderNumber="15" Mandatory="No" MethodOID="MT.STRESN"
                     Role="Result Qualifier"/>
            <ItemRef ItemOID="IT.LB.LBSTRESU" OrderNumber="16" Mandatory="No" MethodOID="MT.STRESU"
                     Role="Variable Qualifier"/>
            <ItemRef ItemOID="IT.LB.LBSTNRLO" OrderNumber="17" Mandatory="No" MethodOID="MT.STNRLH"
                     Role="Variable Qualifier"/>
            <ItemRef ItemOID="IT.LB.LBSTNRHI" OrderNumber="18" Mandatory="No" MethodOID="MT.STNRLH"
                     Role="Variable Qualifier"/>
            <ItemRef ItemOID="IT.LB.LBSTNRC" OrderNumber="19" Mandatory="No"
                     Role="Variable Qualifier"/>
            <ItemRef ItemOID="IT.LB.LBNRIND" OrderNumber="20" Mandatory="No" MethodOID="MT.NRIND"
                     Role="Variable Qualifier"/>
            <ItemRef ItemOID="IT.LB.LBSTAT" OrderNumber="21" Mandatory="No" Role="Record Qualifier"/>
            <ItemRef ItemOID="IT.LB.LBREASND" OrderNumber="22" Mandatory="No"
                     Role="Record Qualifier"/>
            <ItemRef ItemOID="IT.LB.LBSPEC" OrderNumber="23" Mandatory="No" KeySequence="6"
                     Role="Record Qualifier"/>
            <ItemRef ItemOID="IT.LB.LBBLFL" OrderNumber="24" Mandatory="No" MethodOID="MT.BLFL"
                     Role="Record Qualifier"/>
            <ItemRef ItemOID="IT.LB.VISITNUM" OrderNumber="25" Mandatory="No" KeySequence="7"
                     Role="Timing"/>
            <ItemRef ItemOID="IT.LB.VISIT" OrderNumber="26" Mandatory="No" Role="Timing"/>
            <ItemRef ItemOID="IT.LB.EPOCH" OrderNumber="27" Mandatory="No"
                     MethodOID="MT.EPOCH/TAETORD"
                     Role="Timing"/>
            <ItemRef ItemOID="IT.LB.LBDTC" OrderNumber="28" Mandatory="No" Role="Timing"/>
            <ItemRef ItemOID="IT.LB.LBDY" OrderNumber="29" Mandatory="No" MethodOID="MT.DY"
                     Role="Timing"/>
            <ItemRef ItemOID="IT.LB.LBTPT" OrderNumber="30" Mandatory="No" Role="Timing"/>
            <ItemRef ItemOID="IT.LB.LBTPTNUM" OrderNumber="31" Mandatory="No" KeySequence="8"
                     Role="Timing"/>
            <def:leaf ID="LF.LB" xlink:href="lb.xpt">
               <def:title>lb.xpt</def:title>
            </def:leaf>
         </ItemGroupDef>
         <ItemGroupDef OID="IG.PC" Domain="PC" Name="PC" Repeating="Yes" IsReferenceData="No"
                       SASDatasetName="PC"
                       Purpose="Tabulation"
                       def:Structure="One record per sample characteristic or time-point concentration per reference time point or per analyte per subject"
                       def:Class="FINDINGS"
                       def:ArchiveLocationID="LF.PC">
            <Description>
               <TranslatedText xml:lang="en">Pharmacokinetics Concentrations</TranslatedText>
            </Description>
            <ItemRef ItemOID="IT.PC.STUDYID" OrderNumber="1" Mandatory="Yes" KeySequence="1"
                     Role="Identifier"/>
            <ItemRef ItemOID="IT.PC.DOMAIN" OrderNumber="2" Mandatory="Yes" Role="Identifier"/>
            <ItemRef ItemOID="IT.PC.USUBJID" OrderNumber="3" Mandatory="Yes" KeySequence="2"
                     MethodOID="MT.USUBJID"
                     Role="Identifier"/>
            <ItemRef ItemOID="IT.PC.PCSEQ" OrderNumber="4" Mandatory="Yes" MethodOID="MT.SEQ"
                     Role="Identifier"/>
            <ItemRef ItemOID="IT.PC.PCTESTCD" OrderNumber="5" Mandatory="Yes" KeySequence="5"
                     Role="Topic"/>
            <ItemRef ItemOID="IT.PC.PCTEST" OrderNumber="6" Mandatory="Yes" Role="Synonym Qualifier"/>
            <ItemRef ItemOID="IT.PC.PCCAT" OrderNumber="7" Mandatory="No" KeySequence="3"
                     Role="Grouping Qualifier"/>
            <ItemRef ItemOID="IT.PC.PCORRES" OrderNumber="8" Mandatory="No" Role="Result Qualifier"/>
            <ItemRef ItemOID="IT.PC.PCORRESU" OrderNumber="9" Mandatory="No"
                     Role="Variable Qualifier"/>
            <ItemRef ItemOID="IT.PC.PCSTRESC" OrderNumber="10" Mandatory="No"
                     MethodOID="MT.PCSTRESC"
                     Role="Result Qualifier"/>
            <ItemRef ItemOID="IT.PC.PCSTRESN" OrderNumber="11" Mandatory="No"
                     MethodOID="MT.PCSTRESN"
                     Role="Result Qualifier"/>
            <ItemRef ItemOID="IT.PC.PCSTRESU" OrderNumber="12" Mandatory="No"
                     MethodOID="MT.PCSTRESU"
                     Role="Variable Qualifier"/>
            <ItemRef ItemOID="IT.PC.PCNAM" OrderNumber="13" Mandatory="No" Role="Record Qualifier"/>
            <ItemRef ItemOID="IT.PC.PCSPEC" OrderNumber="14" Mandatory="No" KeySequence="4"
                     Role="Record Qualifier"/>
            <ItemRef ItemOID="IT.PC.PCLLOQ" OrderNumber="15" Mandatory="No" MethodOID="MT.PCLLOQ"
                     Role="Variable Qualifier"/>
            <ItemRef ItemOID="IT.PC.VISITNUM" OrderNumber="16" Mandatory="No" KeySequence="6"
                     Role="Timing"/>
            <ItemRef ItemOID="IT.PC.EPOCH" OrderNumber="17" Mandatory="No"
                     MethodOID="MT.EPOCH/TAETORD"
                     Role="Timing"/>
            <ItemRef ItemOID="IT.PC.PCDTC" OrderNumber="18" Mandatory="No" Role="Timing"/>
            <ItemRef ItemOID="IT.PC.PCENDTC" OrderNumber="19" Mandatory="No" Role="Timing"/>
            <ItemRef ItemOID="IT.PC.PCDY" OrderNumber="20" Mandatory="No" MethodOID="MT.DY"
                     Role="Timing"/>
            <ItemRef ItemOID="IT.PC.PCENDY" OrderNumber="21" Mandatory="No" MethodOID="MT.DY"
                     Role="Timing"/>
            <ItemRef ItemOID="IT.PC.PCTPT" OrderNumber="22" Mandatory="No" Role="Timing"/>
            <ItemRef ItemOID="IT.PC.PCTPTNUM" OrderNumber="23" Mandatory="No" KeySequence="7"
                     Role="Timing"/>
            <ItemRef ItemOID="IT.PC.PCTPTREF" OrderNumber="24" Mandatory="No" Role="Timing"/>
            <ItemRef ItemOID="IT.PC.PCRFTDTC" OrderNumber="25" Mandatory="No" MethodOID="MT.RFTDTC"
                     Role="Timing"/>
            <def:leaf ID="LF.PC" xlink:href="pc.xpt">
               <def:title>pc.xpt</def:title>
            </def:leaf>
         </ItemGroupDef>
         <ItemGroupDef OID="IG.PE" Domain="PE" Name="PE" Repeating="Yes" IsReferenceData="No"
                       SASDatasetName="PE"
                       Purpose="Tabulation"
                       def:Structure="One record per body system or abnormality per visit per subject"
                       def:Class="FINDINGS"
                       def:ArchiveLocationID="LF.PE">
            <Description>
               <TranslatedText xml:lang="en">Physical Examination</TranslatedText>
            </Description>
            <ItemRef ItemOID="IT.PE.STUDYID" OrderNumber="1" Mandatory="Yes" KeySequence="1"
                     Role="Identifier"/>
            <ItemRef ItemOID="IT.PE.DOMAIN" OrderNumber="2" Mandatory="Yes" Role="Identifier"/>
            <ItemRef ItemOID="IT.PE.USUBJID" OrderNumber="3" Mandatory="Yes" KeySequence="2"
                     MethodOID="MT.USUBJID"
                     Role="Identifier"/>
            <ItemRef ItemOID="IT.PE.PESEQ" OrderNumber="4" Mandatory="Yes" MethodOID="MT.SEQ"
                     Role="Identifier"/>
            <ItemRef ItemOID="IT.PE.PETESTCD" OrderNumber="5" Mandatory="Yes" KeySequence="3"
                     Role="Topic"/>
            <ItemRef ItemOID="IT.PE.PETEST" OrderNumber="6" Mandatory="Yes" Role="Synonym Qualifier"/>
            <ItemRef ItemOID="IT.PE.PEORRES" OrderNumber="7" Mandatory="No" Role="Result Qualifier"/>
            <ItemRef ItemOID="IT.PE.PESTRESC" OrderNumber="8" Mandatory="No" MethodOID="MT.STRESC"
                     Role="Result Qualifier"/>
            <ItemRef ItemOID="IT.PE.PEBLFL" OrderNumber="9" Mandatory="No" MethodOID="MT.BLFL"
                     Role="Record Qualifier"/>
            <ItemRef ItemOID="IT.PE.VISITNUM" OrderNumber="10" Mandatory="No" KeySequence="4"
                     Role="Timing"/>
            <ItemRef ItemOID="IT.PE.VISIT" OrderNumber="11" Mandatory="No" Role="Timing"/>
            <ItemRef ItemOID="IT.PE.EPOCH" OrderNumber="12" Mandatory="No"
                     MethodOID="MT.EPOCH/TAETORD"
                     Role="Timing"/>
            <ItemRef ItemOID="IT.PE.PEDTC" OrderNumber="13" Mandatory="No" Role="Timing"/>
            <ItemRef ItemOID="IT.PE.PEDY" OrderNumber="14" Mandatory="No" MethodOID="MT.DY"
                     Role="Timing"/>
            <def:leaf ID="LF.PE" xlink:href="pe.xpt">
               <def:title>pe.xpt</def:title>
            </def:leaf>
         </ItemGroupDef>
         <ItemGroupDef OID="IG.PP" Domain="PP" Name="PP" Repeating="Yes" IsReferenceData="No"
                       SASDatasetName="PP"
                       Purpose="Tabulation"
                       def:Structure="One record per PK parameter per time-concentration profile per modeling method per subject"
                       def:Class="FINDINGS"
                       def:ArchiveLocationID="LF.PP">
            <Description>
               <TranslatedText xml:lang="en">Pharmacokinetics Parameters</TranslatedText>
            </Description>
            <ItemRef ItemOID="IT.PP.STUDYID" OrderNumber="1" Mandatory="Yes" KeySequence="1"
                     Role="Identifier"/>
            <ItemRef ItemOID="IT.PP.DOMAIN" OrderNumber="2" Mandatory="Yes" Role="Identifier"/>
            <ItemRef ItemOID="IT.PP.USUBJID" OrderNumber="3" Mandatory="Yes" KeySequence="2"
                     MethodOID="MT.USUBJID"
                     Role="Identifier"/>
            <ItemRef ItemOID="IT.PP.PPSEQ" OrderNumber="4" Mandatory="Yes" MethodOID="MT.SEQ"
                     Role="Identifier"/>
            <ItemRef ItemOID="IT.PP.PPTESTCD" OrderNumber="5" Mandatory="Yes" KeySequence="3"
                     Role="Topic"/>
            <ItemRef ItemOID="IT.PP.PPTEST" OrderNumber="6" Mandatory="Yes" Role="Synonym Qualifier"/>
            <ItemRef ItemOID="IT.PP.PPCAT" OrderNumber="7" Mandatory="No" Role="Grouping Qualifier"/>
            <ItemRef ItemOID="IT.PP.PPORRES" OrderNumber="8" Mandatory="No" Role="Result Qualifier"/>
            <ItemRef ItemOID="IT.PP.PPORRESU" OrderNumber="9" Mandatory="No"
                     Role="Variable Qualifier"/>
            <ItemRef ItemOID="IT.PP.PPSTRESC" OrderNumber="10" Mandatory="No" MethodOID="MT.STRESC"
                     Role="Result Qualifier"/>
            <ItemRef ItemOID="IT.PP.PPSTRESN" OrderNumber="11" Mandatory="No" MethodOID="MT.STRESN"
                     Role="Result Qualifier"/>
            <ItemRef ItemOID="IT.PP.PPSTRESU" OrderNumber="12" Mandatory="No" MethodOID="MT.STRESU"
                     Role="Variable Qualifier"/>
            <ItemRef ItemOID="IT.PP.PPSPEC" OrderNumber="13" Mandatory="No" Role="Record Qualifier"/>
            <ItemRef ItemOID="IT.PP.EPOCH" OrderNumber="14" Mandatory="No"
                     MethodOID="MT.EPOCH/TAETORD"
                     Role="Timing"/>
            <ItemRef ItemOID="IT.PP.PPRFTDTC" OrderNumber="15" Mandatory="No" KeySequence="4"
                     MethodOID="MT.RFTDTC"
                     Role="Timing"/>
            <def:leaf ID="LF.PP" xlink:href="pp.xpt">
               <def:title>pp.xpt</def:title>
            </def:leaf>
         </ItemGroupDef>
         <ItemGroupDef OID="IG.VS" Domain="VS" Name="VS" Repeating="Yes" IsReferenceData="No"
                       SASDatasetName="VS"
                       Purpose="Tabulation"
                       def:Structure="One record per vital sign measurement per time point per visit per subject"
                       def:Class="FINDINGS"
                       def:ArchiveLocationID="LF.VS">
            <Description>
               <TranslatedText xml:lang="en">Vital Signs</TranslatedText>
            </Description>
            <ItemRef ItemOID="IT.VS.STUDYID" OrderNumber="1" Mandatory="Yes" KeySequence="1"
                     Role="Identifier"/>
            <ItemRef ItemOID="IT.VS.DOMAIN" OrderNumber="2" Mandatory="Yes" Role="Identifier"/>
            <ItemRef ItemOID="IT.VS.USUBJID" OrderNumber="3" Mandatory="Yes" KeySequence="2"
                     MethodOID="MT.USUBJID"
                     Role="Identifier"/>
            <ItemRef ItemOID="IT.VS.VSSEQ" OrderNumber="4" Mandatory="Yes" MethodOID="MT.SEQ"
                     Role="Identifier"/>
            <ItemRef ItemOID="IT.VS.VSSPID" OrderNumber="5" Mandatory="No" KeySequence="6"
                     Role="Identifier"/>
            <ItemRef ItemOID="IT.VS.VSTESTCD" OrderNumber="6" Mandatory="Yes" KeySequence="3"
                     Role="Topic"/>
            <ItemRef ItemOID="IT.VS.VSTEST" OrderNumber="7" Mandatory="Yes" Role="Synonym Qualifier"/>
            <ItemRef ItemOID="IT.VS.VSPOS" OrderNumber="8" Mandatory="No" Role="Record Qualifier"/>
            <ItemRef ItemOID="IT.VS.VSORRES" OrderNumber="9" Mandatory="No" Role="Result Qualifier"/>
            <ItemRef ItemOID="IT.VS.VSORRESU" OrderNumber="10" Mandatory="No"
                     Role="Variable Qualifier"/>
            <ItemRef ItemOID="IT.VS.VSORNRLO" OrderNumber="11" Mandatory="No"
                     Role="Variable Qualifier"/>
            <ItemRef ItemOID="IT.VS.VSORNRHI" OrderNumber="12" Mandatory="No"
                     Role="Variable Qualifier"/>
            <ItemRef ItemOID="IT.VS.VSSTRESC" OrderNumber="13" Mandatory="No" MethodOID="MT.STRESC"
                     Role="Result Qualifier"/>
            <ItemRef ItemOID="IT.VS.VSSTRESN" OrderNumber="14" Mandatory="No" MethodOID="MT.STRESN"
                     Role="Result Qualifier"/>
            <ItemRef ItemOID="IT.VS.VSSTRESU" OrderNumber="15" Mandatory="No" MethodOID="MT.STRESU"
                     Role="Variable Qualifier"/>
            <ItemRef ItemOID="IT.VS.VSSTNRLO" OrderNumber="16" Mandatory="No" MethodOID="MT.STNRLH"
                     Role="Variable Qualifier"/>
            <ItemRef ItemOID="IT.VS.VSSTNRHI" OrderNumber="17" Mandatory="No" MethodOID="MT.STNRLH"
                     Role="Variable Qualifier"/>
            <ItemRef ItemOID="IT.VS.VSNRIND" OrderNumber="18" Mandatory="No" MethodOID="MT.NRIND"
                     Role="Variable Qualifier"/>
            <ItemRef ItemOID="IT.VS.VSSTAT" OrderNumber="19" Mandatory="No" Role="Record Qualifier"/>
            <ItemRef ItemOID="IT.VS.VSLOC" OrderNumber="20" Mandatory="No" Role="Record Qualifier"/>
            <ItemRef ItemOID="IT.VS.VSBLFL" OrderNumber="21" Mandatory="No" MethodOID="MT.BLFL"
                     Role="Record Qualifier"/>
            <ItemRef ItemOID="IT.VS.VISITNUM" OrderNumber="22" Mandatory="No" KeySequence="4"
                     Role="Timing"/>
            <ItemRef ItemOID="IT.VS.VISIT" OrderNumber="23" Mandatory="No" Role="Timing"/>
            <ItemRef ItemOID="IT.VS.EPOCH" OrderNumber="24" Mandatory="No"
                     MethodOID="MT.EPOCH/TAETORD"
                     Role="Timing"/>
            <ItemRef ItemOID="IT.VS.VSDTC" OrderNumber="25" Mandatory="No" Role="Timing"/>
            <ItemRef ItemOID="IT.VS.VSDY" OrderNumber="26" Mandatory="No" MethodOID="MT.DY"
                     Role="Timing"/>
            <ItemRef ItemOID="IT.VS.VSTPT" OrderNumber="27" Mandatory="No" Role="Timing"/>
            <ItemRef ItemOID="IT.VS.VSTPTNUM" OrderNumber="28" Mandatory="No" KeySequence="5"
                     Role="Timing"/>
            <def:leaf ID="LF.VS" xlink:href="vs.xpt">
               <def:title>vs.xpt</def:title>
            </def:leaf>
         </ItemGroupDef>
         <ItemGroupDef OID="IG.SUPPAE" Domain="AE" Name="SUPPAE" Repeating="Yes" IsReferenceData="No"
                       SASDatasetName="SUPPAE"
                       Purpose="Tabulation"
                       def:Structure="One record per IDVAR, IDVARVAL, and QNAM value per subject"
                       def:Class="RELATIONSHIPS"
                       def:ArchiveLocationID="LF.SUPPAE">
            <Description>
               <TranslatedText xml:lang="en">Supplemental Qualifiers for AE</TranslatedText>
            </Description>
            <ItemRef ItemOID="IT.SUPPAE.STUDYID" OrderNumber="1" Mandatory="Yes" KeySequence="1"
                     Role="Identifier"/>
            <ItemRef ItemOID="IT.SUPPAE.RDOMAIN" OrderNumber="2" Mandatory="Yes" KeySequence="2"
                     Role="Identifier"/>
            <ItemRef ItemOID="IT.SUPPAE.USUBJID" OrderNumber="3" Mandatory="Yes" KeySequence="3"
                     MethodOID="MT.USUBJID"
                     Role="Identifier"/>
            <ItemRef ItemOID="IT.SUPPAE.IDVAR" OrderNumber="4" Mandatory="No" KeySequence="4"
                     Role="Identifier"/>
            <ItemRef ItemOID="IT.SUPPAE.IDVARVAL" OrderNumber="5" Mandatory="No" KeySequence="5"
                     Role="Identifier"/>
